id;userid;conclusionType;trial;condition;stimid;rt;decision;valuedecision;timestamp
2262;95;""1"";1;5;15;2130;1;2;"2020-01-10 09:42:14"
2263;108;""0"";1;3;41;6500;2;2;"2020-01-10 11:16:09"
2264;108;""0"";2;3;59;88380;2;2;"2020-01-10 11:17:39"
2265;108;""0"";3;5;28;9370;4;2;"2020-01-10 11:17:50"
2266;108;""0"";4;5;8;31880;4;2;"2020-01-10 11:18:23"
2267;108;""0"";5;3;52;5110;4;2;"2020-01-10 11:18:29"
2268;108;""0"";6;5;4;12030;4;2;"2020-01-10 11:18:43"
2269;108;""0"";7;5;46;41420;2;2;"2020-01-10 11:19:25"
2270;108;""0"";8;3;51;21530;0;2;"2020-01-10 11:19:48"
2271;108;""0"";9;3;60;13490;2;2;"2020-01-10 11:20:03"
2272;108;""0"";10;5;43;26410;0;2;"2020-01-10 11:20:30"
2273;108;""0"";11;5;37;18800;2;0;"2020-01-10 11:20:50"
2274;108;""0"";12;3;11;62690;0;2;"2020-01-10 11:21:54"
2275;108;""0"";13;3;5;107790;2;2;"2020-01-10 11:23:45"
2276;108;""0"";14;5;57;78920;0;2;"2020-01-10 11:25:06"
2277;108;""0"";15;5;22;72750;2;2;"2020-01-10 11:26:23"
2278;103;""1"";1;5;36;7850;4;2;"2020-01-10 13:36:05"
2279;103;""1"";2;5;37;15500;1;2;"2020-01-10 13:36:31"
2280;103;""1"";3;5;14;24140;1;2;"2020-01-10 13:36:49"
2281;103;""1"";4;5;34;102210;1;2;"2020-01-10 13:38:34"
2282;103;""1"";5;3;25;20470;0;2;"2020-01-10 13:38:57"
2283;103;""1"";6;3;24;8190;2;1;"2020-01-10 13:39:07"
2284;103;""1"";7;5;39;17850;2;0;"2020-01-10 13:39:27"
2285;103;""1"";8;3;57;9470;0;2;"2020-01-10 13:39:39"
2286;103;""1"";9;3;54;25760;4;2;"2020-01-10 13:40:07"
2287;103;""1"";10;5;19;17880;2;1;"2020-01-10 13:40:26"
2288;103;""1"";11;5;16;39840;4;2;"2020-01-10 13:41:08"
2289;103;""1"";12;5;56;9460;1;2;"2020-01-10 13:41:20"
2290;103;""1"";13;5;1;34190;2;2;"2020-01-10 13:41:56"
2291;103;""1"";14;3;35;15180;0;2;"2020-01-10 13:42:13"
2292;103;""1"";15;3;3;29110;0;2;"2020-01-10 13:45:37"
2293;103;""1"";16;5;48;7300;4;2;"2020-01-10 13:45:48"
2294;103;""1"";17;5;45;43130;2;2;"2020-01-10 13:46:33"
2295;103;""1"";18;3;28;102390;4;2;"2020-01-10 13:48:18"
2296;103;""1"";19;3;55;11700;0;2;"2020-01-10 13:48:32"
2297;103;""1"";20;3;32;73620;4;2;"2020-01-10 13:49:49"
2298;103;""1"";21;5;47;28310;2;2;"2020-01-10 13:50:20"
2299;103;""1"";22;3;50;34330;2;2;"2020-01-10 13:50:57"
2300;103;""1"";23;5;10;130810;2;2;"2020-01-10 13:53:11"
2301;112;""1"";1;5;41;439020;0;2;"2020-01-10 14:53:03"
2304;107;""0"";1;3;46;396380;2;2;"2020-01-13 08:28:52"
2305;107;""0"";2;5;7;86640;2;0;"2020-01-13 08:30:25"
2306;107;""0"";3;3;32;544990;0;2;"2020-01-13 08:59:25"
2307;107;""0"";4;5;37;719150;0;2;"2020-01-13 09:11:32"
2308;107;""0"";5;5;59;413860;0;2;"2020-01-13 09:18:38"
2309;107;""0"";6;3;19;502160;0;1;"2020-01-13 09:27:15"
2310;107;""0"";7;5;52;355950;4;2;"2020-01-13 09:33:25"
2311;107;""0"";8;5;4;523440;4;2;"2020-01-13 09:45:57"
2312;107;""0"";9;3;33;85880;2;1;"2020-01-13 09:47:25"
2313;107;""0"";10;5;42;412670;4;2;"2020-01-13 09:54:47"
2314;107;""0"";11;3;44;655900;2;1;"2020-01-13 10:05:55"
2315;107;""0"";12;3;22;294560;2;2;"2020-01-13 10:10:55"
2316;107;""0"";13;5;41;504900;1;2;"2020-01-13 10:24:28"
2317;107;""0"";14;3;53;510540;0;2;"2020-01-13 10:40:05"
2318;107;""0"";15;3;11;548550;0;2;"2020-01-13 10:51:08"
2319;107;""0"";16;5;31;168080;1;2;"2020-01-13 10:54:01"
2320;107;""0"";17;3;56;164690;2;2;"2020-01-13 10:56:51"
2321;107;""0"";18;3;51;157140;0;2;"2020-01-13 10:59:37"
2322;107;""0"";19;3;43;171530;0;2;"2020-01-13 13:11:27"
2323;107;""0"";20;5;26;342600;3;2;"2020-01-13 13:17:27"
2324;107;""0"";21;5;29;46520;0;2;"2020-01-13 13:18:27"
2325;107;""0"";22;5;18;105120;4;2;"2020-01-13 13:20:19"
2326;107;""0"";23;3;34;247960;4;2;"2020-01-13 13:24:37"
2327;107;""0"";24;5;15;231640;2;2;"2020-01-13 13:31:23"
2328;107;""0"";25;3;35;168820;0;2;"2020-01-13 13:34:17"
2329;107;""0"";26;3;10;233950;2;2;"2020-01-13 13:38:18"
2330;107;""0"";27;3;45;120010;2;1;"2020-01-13 13:40:22"
2331;107;""0"";28;5;23;146640;2;0;"2020-01-13 13:42:51"
2332;107;""0"";29;5;60;320870;4;2;"2020-01-13 13:48:32"
2333;107;""0"";30;5;1;317620;0;2;"2020-01-13 13:54:33"
2334;107;""0"";31;5;25;314420;2;2;"2020-01-14 07:19:41"
2335;107;""0"";32;3;9;589280;0;2;"2020-01-14 07:34:58"
2336;107;""0"";33;3;54;202240;4;2;"2020-01-14 07:38:31"
2337;107;""0"";34;5;16;454590;4;2;"2020-01-14 07:46:22"
2338;107;""0"";35;3;2;216460;2;2;"2020-01-14 07:50:02"
2339;107;""0"";36;3;6;192150;2;2;"2020-01-14 07:53:25"
2340;107;""0"";37;5;8;224670;4;2;"2020-01-14 07:57:22"
2341;107;""0"";38;5;40;513150;1;2;"2020-01-14 08:25:47"
2342;107;""0"";39;5;5;339110;0;2;"2020-01-14 08:53:06"
2343;107;""0"";40;5;3;270730;2;2;"2020-01-14 08:57:47"
2344;107;""0"";41;3;47;694500;0;2;"2020-01-14 09:11:18"
2345;107;""0"";42;5;50;191780;2;1;"2020-01-14 09:14:34"
2346;107;""0"";43;3;24;136370;2;0;"2020-01-14 09:16:55"
2347;107;""0"";44;5;21;158170;2;2;"2020-01-14 09:19:39"
2348;107;""0"";45;5;48;528700;3;2;"2020-01-14 09:28:42"
2349;107;""0"";46;3;49;757980;0;2;"2020-01-14 10:21:43"
2350;107;""0"";47;5;13;130570;2;0;"2020-01-14 10:26:57"
2351;107;""0"";48;3;57;278130;0;2;"2020-01-14 10:34:39"
2352;107;""0"";49;3;14;829340;4;2;"2020-01-14 10:53:33"
2353;107;""0"";50;3;27;64190;2;0;"2020-01-14 10:54:45"
2354;107;""0"";51;5;39;120910;2;0;"2020-01-14 10:56:49"
2355;107;""0"";52;5;38;85600;2;0;"2020-01-14 10:59:21"
2356;107;""0"";53;3;58;253600;4;2;"2020-01-14 11:03:53"
2357;107;""0"";54;5;12;403360;3;2;"2020-01-14 11:10:48"
2358;107;""0"";55;3;17;155220;0;1;"2020-01-14 11:13:31"
2359;107;""0"";56;5;30;1800000;2;2;"2020-01-14 11:55:45"
2360;107;""0"";57;5;28;350820;1;2;"2020-01-14 13:48:47"
2361;107;""0"";58;3;20;82100;4;2;"2020-01-14 13:50:23"
2362;107;""0"";59;3;55;155200;0;2;"2020-01-14 13:53:03"
2363;107;""0"";60;3;36;193550;4;2;"2020-01-14 13:56:26"
2364;110;""1"";1;5;11;295430;0;2;"2020-01-15 10:27:59"
2365;110;""1"";2;5;56;678570;1;2;"2020-01-15 10:41:55"
2366;110;""1"";3;3;49;319700;2;2;"2020-01-15 10:48:40"
2367;110;""1"";4;5;22;178180;2;2;"2020-01-15 10:51:43"
2368;110;""1"";5;3;20;161620;4;2;"2020-01-15 10:54:35"
2369;110;""1"";6;5;9;434690;1;2;"2020-01-15 11:01:56"
2370;110;""1"";7;3;45;212840;2;1;"2020-01-15 11:05:53"
2371;110;""1"";8;3;51;118670;0;2;"2020-01-15 11:07:58"
2372;110;""1"";9;3;28;374800;4;2;"2020-01-15 11:14:29"
2373;110;""1"";10;3;30;253810;4;2;"2020-01-15 11:19:13"
2374;110;""1"";11;3;6;161120;2;2;"2020-01-15 11:28:40"
2375;110;""1"";12;3;19;118350;2;1;"2020-01-15 11:30:40"
2376;110;""1"";13;5;59;338000;1;2;"2020-01-15 11:47:38"
2377;110;""1"";14;3;46;367600;2;2;"2020-01-15 11:53:52"
2378;110;""1"";15;3;7;26510;2;0;"2020-01-15 11:54:20"
2379;110;""1"";16;3;2;234420;2;2;"2020-01-15 13:20:13"
2380;110;""1"";17;3;34;938900;4;2;"2020-01-15 13:36:04"
2381;110;""1"";18;5;18;127960;4;2;"2020-01-15 13:46:25"
2382;110;""1"";19;3;26;608360;4;2;"2020-01-15 13:56:42"
2383;110;""1"";20;5;48;283480;3;2;"2020-01-15 14:01:34"
2384;110;""1"";21;3;60;306060;4;2;"2020-01-15 14:06:54"
2385;110;""1"";22;5;39;178200;2;0;"2020-01-15 14:13:19"
2386;110;""1"";23;3;57;306730;0;2;"2020-01-15 14:18:36"
2387;110;""1"";24;5;3;304370;2;2;"2020-01-15 14:23:47"
2388;110;""1"";25;5;52;393110;4;2;"2020-01-15 14:30:41"
2389;110;""1"";26;3;25;383270;2;2;"2020-01-15 14:37:24"
2390;110;""1"";27;3;15;229150;2;2;"2020-01-15 14:41:19"
2391;110;""1"";28;5;50;276200;2;1;"2020-01-15 15:11:33"
2392;110;""1"";29;5;29;145720;0;2;"2020-01-15 15:14:58"
2393;110;""1"";30;5;16;566880;0;2;"2020-01-15 15:24:37"
2394;110;""1"";31;5;27;388590;2;0;"2020-01-15 15:36:56"
2395;110;""1"";32;3;40;644030;2;2;"2020-01-15 15:48:57"
2396;110;""1"";33;5;32;621510;3;2;"2020-01-15 15:59:42"
2397;110;""1"";34;3;42;287830;4;2;"2020-01-16 08:38:02"
2398;116;""0"";1;5;51;158670;0;2;"2020-01-16 08:42:39"
2399;110;""1"";35;3;5;340210;0;2;"2020-01-16 08:44:12"
2400;116;""0"";2;3;10;193920;2;2;"2020-01-16 08:45:57"
2401;116;""0"";3;5;31;260940;1;2;"2020-01-16 08:50:23"
2402;110;""1"";36;3;36;460820;4;2;"2020-01-16 08:52:06"
2403;116;""0"";4;5;8;224490;4;2;"2020-01-16 08:54:46"
2404;110;""1"";37;3;4;226870;4;2;"2020-01-16 08:55:59"
2405;110;""1"";38;3;1;613710;0;2;"2020-01-16 09:07:20"
2406;116;""0"";5;3;48;498620;2;2;"2020-01-16 09:16:13"
2407;110;""1"";39;5;54;523220;4;2;"2020-01-16 09:49:50"
2408;110;""1"";40;3;21;226670;0;2;"2020-01-16 09:53:52"
2409;110;""1"";41;5;43;101060;0;2;"2020-01-16 10:02:28"
2410;110;""1"";42;3;37;278390;0;2;"2020-01-16 10:30:55"
2411;110;""1"";43;5;58;280050;4;2;"2020-01-16 11:05:59"
2412;110;""1"";44;3;12;270570;2;2;"2020-01-16 11:10:35"
2413;110;""1"";45;5;47;472040;1;2;"2020-01-16 11:18:34"
2414;110;""1"";46;5;35;191590;0;2;"2020-01-16 11:24:07"
2415;110;""1"";47;5;44;315120;2;1;"2020-01-16 11:29:28"
2416;117;""1"";1;5;29;43560;0;2;"2020-01-16 11:33:30"
2417;110;""1"";48;5;31;382900;0;2;"2020-01-16 11:36:12"
2418;117;""1"";2;3;9;153750;0;2;"2020-01-16 11:36:15"
2419;110;""1"";49;5;14;480060;3;2;"2020-01-16 11:44:20"
2420;117;""1"";3;5;28;625950;3;1;"2020-01-16 11:57:05"
2421;117;""1"";4;5;35;134200;0;2;"2020-01-16 11:59:26"
2422;117;""1"";5;5;20;39590;4;2;"2020-01-16 12:06:46"
2423;117;""1"";6;5;40;238970;3;2;"2020-01-16 12:10:51"
2424;117;""1"";7;3;3;161340;0;2;"2020-01-16 12:13:41"
2425;117;""1"";8;3;14;425990;4;2;"2020-01-16 12:21:00"
2426;117;""1"";9;3;24;224770;2;1;"2020-01-16 12:24:52"
2427;117;""1"";10;3;54;275740;4;2;"2020-01-16 12:29:54"
2428;117;""1"";11;5;46;364970;3;2;"2020-01-16 12:53:43"
2429;117;""1"";12;5;1;348970;0;2;"2020-01-16 12:59:40"
2430;117;""1"";13;5;60;561130;1;2;"2020-01-16 13:09:15"
2431;110;""1"";50;5;55;299240;0;2;"2020-01-16 13:10:36"
2432;117;""1"";14;3;30;178780;4;2;"2020-01-16 13:12:20"
2433;117;""1"";15;3;56;198200;2;2;"2020-01-16 13:15:46"
2434;110;""1"";51;5;10;366420;3;2;"2020-01-16 13:16:49"
2435;117;""1"";16;3;49;299760;0;2;"2020-01-16 13:20:55"
2436;110;""1"";52;5;38;327470;2;2;"2020-01-16 13:22:23"
2437;117;""1"";17;5;2;245480;2;0;"2020-01-16 13:29:41"
2438;117;""1"";18;3;33;564950;2;2;"2020-01-16 13:40:47"
2439;117;""1"";19;3;53;364160;2;0;"2020-01-16 13:47:00"
2440;117;""1"";20;3;12;369310;2;2;"2020-01-16 13:54:41"
2441;110;""1"";53;3;33;9410;2;2;"2020-01-16 14:01:56"
2442;110;""1"";54;3;41;275950;0;2;"2020-01-16 14:06:36"
2443;110;""1"";55;5;8;363830;4;2;"2020-01-16 14:23:13"
2444;110;""1"";56;5;53;253240;0;2;"2020-01-16 14:32:39"
2445;110;""1"";57;5;23;407700;1;2;"2020-01-16 14:40:14"
2446;110;""1"";58;3;13;177920;2;0;"2020-01-16 14:43:15"
2447;110;""1"";59;5;17;151960;1;2;"2020-01-16 14:45:51"
2448;110;""1"";60;3;24;173530;2;1;"2020-01-16 14:48:48"
2449;97;""0"";1;3;54;165190;4;2;"2020-01-18 10:41:22"
2450;97;""0"";2;3;51;106760;0;2;"2020-01-18 10:43:12"
2451;97;""0"";3;5;14;619300;4;2;"2020-01-18 10:53:34"
2452;97;""0"";4;5;9;373730;0;2;"2020-01-18 11:00:09"
2453;97;""0"";5;5;35;69520;0;2;"2020-01-18 11:01:21"
2454;97;""0"";6;3;41;333560;0;2;"2020-01-18 11:06:56"
2455;97;""0"";7;5;56;278030;3;0;"2020-01-18 11:11:50"
2456;97;""0"";8;5;47;458800;1;2;"2020-01-18 11:20:41"
2457;97;""0"";9;5;59;360180;1;2;"2020-01-18 11:26:42"
2458;97;""0"";10;3;50;85760;2;0;"2020-01-18 11:28:10"
2459;97;""0"";11;5;10;180660;2;2;"2020-01-18 11:31:12"
2460;97;""0"";12;3;15;268030;2;2;"2020-01-18 11:35:42"
2461;97;""0"";13;3;39;115920;2;0;"2020-01-18 11:37:39"
2462;97;""0"";14;5;17;361230;0;2;"2020-01-18 11:43:43"
2463;97;""0"";15;3;25;229140;0;2;"2020-01-18 11:47:34"
2464;97;""0"";16;3;45;398230;2;2;"2020-01-18 11:54:14"
2465;97;""0"";17;5;7;38440;1;0;"2020-01-18 11:54:53"
2466;97;""0"";18;3;37;289280;0;2;"2020-01-18 11:59:44"
2467;97;""0"";19;5;34;378170;3;2;"2020-01-18 12:06:05"
2468;97;""0"";20;5;53;340920;0;2;"2020-01-18 12:11:50"
2469;97;""0"";21;3;12;253910;2;2;"2020-01-19 07:38:30"
2470;97;""0"";22;5;2;188650;3;0;"2020-01-19 07:42:16"
2471;97;""0"";23;5;28;183180;4;2;"2020-01-19 07:45:21"
2472;97;""0"";24;3;52;259040;4;1;"2020-01-19 07:49:42"
2473;97;""0"";25;3;57;112580;0;2;"2020-01-19 07:51:36"
2474;97;""0"";26;3;46;231110;2;1;"2020-01-19 07:55:28"
2475;97;""0"";27;5;19;128100;2;0;"2020-01-19 07:57:38"
2476;97;""0"";28;3;21;114460;2;2;"2020-01-19 07:59:34"
2477;97;""0"";29;3;48;332870;2;1;"2020-01-19 08:05:08"
2478;97;""0"";30;5;44;532190;3;2;"2020-01-19 08:14:02"
2479;97;""0"";31;3;29;9130;0;2;"2020-01-19 08:14:13"
2480;97;""0"";32;5;36;195310;4;2;"2020-01-19 08:17:31"
2481;97;""0"";33;3;30;151970;4;2;"2020-01-19 08:20:04"
2482;97;""0"";34;3;60;589970;2;0;"2020-01-19 08:29:56"
2483;97;""0"";35;5;32;246200;3;0;"2020-01-19 08:34:04"
2484;97;""0"";36;3;1;212630;2;2;"2020-01-19 08:37:39"
2485;97;""0"";37;3;43;7230;0;2;"2020-01-19 08:37:47"
2486;97;""0"";38;3;42;212550;4;2;"2020-01-19 08:41:21"
2487;97;""0"";39;3;4;215530;4;2;"2020-01-19 08:44:58"
2488;97;""0"";40;5;55;17050;0;2;"2020-01-19 08:45:17"
2489;97;""0"";41;5;23;363310;1;2;"2020-01-19 08:51:22"
2490;97;""0"";42;5;13;154060;2;0;"2020-01-19 08:53:58"
2491;97;""0"";43;5;31;130560;0;1;"2020-01-19 08:56:10"
2492;97;""0"";44;5;18;43050;4;2;"2020-01-19 08:56:55"
2493;97;""0"";45;5;3;93380;1;0;"2020-01-19 08:58:29"
2494;97;""0"";46;3;20;17840;4;2;"2020-01-19 08:58:49"
2495;97;""0"";47;5;8;65310;4;2;"2020-01-19 08:59:56"
2496;97;""0"";48;3;5;384010;0;2;"2020-01-19 09:07:19"
2497;97;""0"";49;5;49;136140;0;2;"2020-01-19 10:38:44"
2498;97;""0"";50;5;33;372410;3;1;"2020-01-19 10:44:58"
2499;97;""0"";51;5;24;270330;3;1;"2020-01-19 10:49:30"
2500;97;""0"";52;3;11;153010;0;2;"2020-01-19 10:52:05"
2501;97;""0"";53;3;27;85800;2;0;"2020-01-19 10:53:32"
2502;97;""0"";54;3;40;361060;2;2;"2020-01-19 10:59:35"
2503;97;""0"";55;5;6;131780;3;1;"2020-01-19 11:01:49"
2504;97;""0"";56;3;22;109320;2;0;"2020-01-19 11:03:41"
2505;97;""0"";57;3;16;326650;4;2;"2020-01-19 11:09:09"
2506;97;""0"";58;5;38;195220;2;2;"2020-01-19 11:12:26"
2507;97;""0"";59;3;58;343480;4;2;"2020-01-19 11:18:11"
2508;97;""0"";60;5;26;171910;2;2;"2020-01-19 11:21:05"
2509;119;""0"";1;3;10;79660;2;2;"2020-01-19 15:46:25"
2510;119;""0"";2;3;7;78830;2;0;"2020-01-19 15:47:53"
2511;119;""0"";3;3;43;10360;0;2;"2020-01-19 15:48:06"
2512;119;""0"";4;5;57;95960;0;2;"2020-01-19 15:49:47"
2513;119;""0"";5;3;58;121990;4;2;"2020-01-19 15:51:52"
2514;119;""0"";6;5;1;288480;2;2;"2020-01-19 15:56:46"
2515;119;""0"";7;5;20;39300;4;2;"2020-01-19 15:57:28"
2516;119;""0"";8;3;23;225220;2;1;"2020-01-19 16:01:18"
2517;119;""0"";9;5;28;144210;4;2;"2020-01-19 16:03:49"
2518;119;""0"";10;5;59;477620;0;2;"2020-01-19 16:11:54"
2519;119;""0"";11;5;46;101470;4;2;"2020-01-19 16:13:41"
2520;119;""0"";12;3;9;76680;2;2;"2020-01-19 16:15:03"
2521;119;""0"";13;5;34;304080;4;2;"2020-01-19 16:20:18"
2522;119;""0"";14;3;17;116470;0;2;"2020-01-19 16:22:18"
2523;119;""0"";15;5;31;148770;1;2;"2020-01-19 16:24:53"
2524;119;""0"";16;3;32;171070;4;2;"2020-01-19 16:27:50"
2525;119;""0"";17;5;8;120580;4;2;"2020-01-19 16:29:56"
2526;119;""0"";18;3;30;102650;4;2;"2020-01-19 16:31:44"
2527;119;""0"";19;5;4;118280;4;2;"2020-01-19 16:33:47"
2528;119;""0"";20;5;22;97690;2;2;"2020-01-19 16:35:27"
2529;119;""0"";21;5;60;162510;2;1;"2020-01-19 16:38:12"
2530;119;""0"";22;5;56;154090;1;1;"2020-01-19 16:40:48"
2531;119;""0"";23;5;19;122000;1;1;"2020-01-19 16:42:54"
2532;119;""0"";24;5;26;160720;4;2;"2020-01-19 16:45:41"
2533;119;""0"";25;3;6;63100;2;2;"2020-01-19 16:46:48"
2534;119;""0"";26;3;40;109960;4;2;"2020-01-19 16:48:40"
2535;119;""0"";27;3;38;94210;2;2;"2020-01-19 16:50:16"
2536;119;""0"";28;3;45;186730;2;2;"2020-01-19 16:53:27"
2537;119;""0"";29;5;33;168770;2;2;"2020-01-19 16:56:21"
2538;119;""0"";30;5;37;268630;2;2;"2020-01-19 17:00:57"
2539;119;""0"";31;3;2;127470;2;2;"2020-01-19 17:03:06"
2540;119;""0"";32;3;14;185480;2;2;"2020-01-19 17:06:15"
2541;119;""0"";33;3;27;49480;2;0;"2020-01-19 17:07:10"
2542;119;""0"";34;3;16;118460;4;2;"2020-01-19 17:09:12"
2543;119;""0"";35;3;13;55880;2;0;"2020-01-19 17:10:13"
2544;119;""0"";36;5;12;310900;1;2;"2020-01-19 17:15:29"
2545;119;""0"";37;3;44;95280;2;2;"2020-01-19 17:17:10"
2546;119;""0"";38;5;52;71500;4;2;"2020-01-19 17:18:27"
2547;119;""0"";39;3;42;226960;4;2;"2020-01-19 17:22:27"
2548;119;""0"";40;3;49;202810;2;2;"2020-01-19 17:25:56"
2549;119;""0"";41;3;47;1061430;2;2;"2020-01-19 17:44:42"
2550;119;""0"";42;5;48;145060;3;2;"2020-01-19 17:47:10"
2551;119;""0"";43;3;54;48150;4;2;"2020-01-19 17:48:01"
2552;119;""0"";44;3;50;28570;2;0;"2020-01-19 17:48:31"
2553;119;""0"";45;5;55;38340;0;2;"2020-01-19 17:49:11"
2554;119;""0"";46;5;35;25740;0;2;"2020-01-19 17:49:39"
2555;119;""0"";47;3;18;14710;4;2;"2020-01-19 17:49:56"
2556;119;""0"";48;5;3;179030;1;2;"2020-01-19 17:52:58"
2557;119;""0"";49;5;15;105830;2;2;"2020-01-19 17:54:50"
2558;119;""0"";50;3;29;7460;0;2;"2020-01-19 17:54:59"
2559;119;""0"";51;3;51;46340;0;2;"2020-01-19 17:55:47"
2560;119;""0"";52;3;11;78610;0;2;"2020-01-19 17:57:10"
2561;119;""0"";53;5;21;297670;1;2;"2020-01-19 18:02:19"
2562;119;""0"";54;5;41;203240;2;2;"2020-01-19 18:05:52"
2563;119;""0"";55;5;53;112420;1;2;"2020-01-19 18:07:49"
2564;119;""0"";56;5;36;70340;4;2;"2020-01-19 18:09:04"
2565;119;""0"";57;5;39;10760;2;0;"2020-01-19 18:09:18"
2566;119;""0"";58;3;5;103650;0;2;"2020-01-19 18:11:06"
2567;119;""0"";59;5;24;134920;2;1;"2020-01-19 18:13:28"
2568;119;""0"";60;3;25;140800;0;2;"2020-01-19 18:15:55"
2569;108;""0"";16;5;12;125230;2;2;"2020-01-20 12:32:00"
2570;108;""0"";17;5;16;149430;4;2;"2020-01-20 12:34:32"
2571;108;""0"";18;3;9;109940;2;2;"2020-01-20 12:36:42"
2572;108;""0"";19;3;44;65200;2;0;"2020-01-20 12:37:49"
2573;108;""0"";20;3;20;79900;4;2;"2020-01-20 12:39:11"
2574;108;""0"";21;5;48;129090;2;2;"2020-01-20 12:41:22"
2575;108;""0"";22;5;50;80810;2;0;"2020-01-20 12:42:44"
2576;108;""0"";23;3;1;205990;2;2;"2020-01-20 12:46:13"
2577;108;""0"";24;5;42;309070;4;2;"2020-01-20 12:51:27"
2578;108;""0"";25;5;53;185900;0;2;"2020-01-20 12:54:35"
2579;108;""0"";26;3;18;25480;4;2;"2020-01-20 12:55:02"
2580;108;""0"";27;3;23;50100;2;0;"2020-01-20 12:55:53"
2581;108;""0"";28;3;26;338980;2;2;"2020-01-21 06:55:08"
2582;108;""0"";29;5;27;44380;2;0;"2020-01-21 06:55:54"
2583;108;""0"";30;3;36;107820;4;2;"2020-01-21 06:57:45"
2584;108;""0"";31;5;13;29420;2;0;"2020-01-21 06:58:24"
2585;108;""0"";32;3;35;21620;0;2;"2020-01-21 06:58:47"
2586;108;""0"";33;3;34;108800;2;2;"2020-01-21 07:00:38"
2587;108;""0"";34;3;3;140820;2;0;"2020-01-21 07:03:01"
2588;108;""0"";35;3;7;27290;2;0;"2020-01-21 07:03:30"
2589;108;""0"";36;3;56;47650;2;2;"2020-01-21 07:04:20"
2590;108;""0"";37;3;40;217360;2;2;"2020-01-21 07:08:00"
2591;108;""0"";38;5;47;178550;2;2;"2020-01-21 07:11:01"
2592;112;""1"";2;5;53;248870;1;2;"2020-01-21 11:27:50"
2593;112;""1"";3;3;54;252990;4;2;"2020-01-21 11:32:08"
2594;112;""1"";4;3;21;131900;0;2;"2020-01-21 11:34:23"
2595;112;""1"";5;3;42;327160;4;2;"2020-01-21 11:39:51"
2596;108;""0"";39;3;38;27000;2;0;"2020-01-21 11:45:24"
2597;112;""1"";6;5;52;401630;4;2;"2020-01-21 11:46:33"
2598;108;""0"";40;5;25;149240;2;2;"2020-01-21 11:47:56"
2599;112;""1"";7;5;39;109880;2;0;"2020-01-21 11:48:25"
2600;108;""0"";41;3;24;26300;2;0;"2020-01-21 11:48:26"
2601;108;""0"";42;3;55;127330;0;2;"2020-01-21 11:51:37"
2602;112;""1"";8;5;46;216430;3;2;"2020-01-21 11:52:04"
2603;112;""1"";9;3;9;332600;2;2;"2020-01-21 12:05:39"
2604;112;""1"";10;3;60;327420;4;2;"2020-01-21 12:11:07"
2605;112;""1"";11;3;45;156390;2;1;"2020-01-21 15:57:23"
2606;112;""1"";12;3;31;135120;2;2;"2020-01-21 15:59:41"
2607;112;""1"";13;3;16;317640;4;2;"2020-01-21 16:05:00"
2608;112;""1"";14;5;48;349990;3;2;"2020-01-21 16:14:27"
2609;112;""1"";15;3;34;493720;4;2;"2020-01-21 16:22:41"
2610;112;""1"";16;3;50;150490;2;1;"2020-01-21 16:25:14"
2611;112;""1"";17;5;55;196080;0;2;"2020-01-21 16:28:31"
2612;112;""1"";18;5;43;94630;0;2;"2020-01-21 16:30:07"
2613;112;""1"";19;5;29;112490;0;2;"2020-01-21 16:32:03"
2614;112;""1"";20;5;12;323500;2;2;"2020-01-21 16:38:04"
2615;112;""1"";21;5;28;511970;4;2;"2020-01-21 16:46:36"
2616;112;""1"";22;3;33;195300;2;2;"2020-01-21 16:49:59"
2617;124;""1"";1;5;38;1624730;1;2;"2020-01-22 09:19:59"
2618;124;""1"";2;5;41;291440;1;2;"2020-01-22 09:25:04"
2619;124;""1"";3;3;18;108030;4;2;"2020-01-22 09:26:55"
2620;124;""1"";4;5;16;291460;4;2;"2020-01-22 09:31:55"
2621;124;""1"";5;5;29;68490;0;2;"2020-01-22 09:33:06"
2622;124;""1"";6;3;34;928970;2;2;"2020-01-22 09:48:40"
2623;124;""1"";7;5;11;201470;0;2;"2020-01-22 09:52:03"
2624;124;""1"";8;5;28;746980;3;2;"2020-01-22 10:11:59"
2625;124;""1"";9;5;40;529250;3;2;"2020-01-22 10:48:25"
2626;124;""1"";10;3;50;93610;2;0;"2020-01-22 10:50:05"
2627;124;""1"";11;3;12;337490;4;2;"2020-01-22 10:55:44"
2628;124;""1"";12;3;22;68560;2;2;"2020-01-22 10:56:56"
2629;116;""0"";6;5;34;927830;4;2;"2020-01-22 11:09:34"
2630;124;""1"";13;3;46;628510;4;2;"2020-01-22 11:09:55"
2631;116;""0"";7;5;27;126260;2;0;"2020-01-22 11:14:12"
2632;124;""1"";14;3;30;636350;4;2;"2020-01-22 11:21:00"
2633;116;""0"";8;5;52;246520;4;2;"2020-01-22 11:21:15"
2634;124;""1"";15;3;6;19110;2;2;"2020-01-22 11:21:22"
2635;116;""0"";9;3;9;312870;2;2;"2020-01-22 11:30:02"
2636;124;""1"";16;3;32;698100;4;0;"2020-01-22 11:33:01"
2637;116;""0"";10;3;37;262110;2;0;"2020-01-22 11:35:41"
2638;96;""0"";1;5;1;9740;3;2;"2020-01-22 11:39:44"
2639;95;""1"";2;3;41;3440;0;1;"2020-01-22 11:40:34"
2640;95;""1"";3;3;10;4870;0;0;"2020-01-22 11:40:40"
2641;95;""1"";4;3;48;3990;2;2;"2020-01-22 11:40:47"
2642;95;""1"";5;3;28;2730;2;2;"2020-01-22 11:40:51"
2643;116;""0"";11;5;13;123500;2;0;"2020-01-22 11:52:47"
2644;116;""0"";12;3;17;621260;2;2;"2020-01-22 13:03:13"
2645;116;""0"";13;3;6;155870;2;0;"2020-01-22 13:05:51"
2646;116;""0"";14;5;49;221000;2;2;"2020-01-22 13:09:42"
2647;115;""1"";1;3;7;134060;0;0;"2020-01-22 16:22:41"
2648;115;""1"";2;5;52;326060;4;2;"2020-01-22 16:28:19"
2649;115;""1"";3;5;40;786380;3;2;"2020-01-22 16:41:33"
2650;114;""0"";1;5;48;1147970;3;2;"2020-01-22 18:28:38"
2651;114;""0"";2;5;7;308200;0;1;"2020-01-22 18:33:50"
2652;114;""0"";3;3;27;166610;0;0;"2020-01-22 18:36:41"
2653;114;""0"";4;5;33;959270;2;2;"2020-01-22 19:07:59"
2654;108;""0"";43;5;32;288820;4;2;"2020-01-23 09:00:06"
2655;108;""0"";44;5;15;69890;2;2;"2020-01-23 09:01:17"
2656;108;""0"";45;5;49;58640;2;2;"2020-01-23 09:02:17"
2657;108;""0"";46;5;58;209840;4;2;"2020-01-23 09:05:51"
2658;108;""0"";47;5;54;131270;4;2;"2020-01-23 09:18:11"
2659;108;""0"";48;3;29;14380;0;2;"2020-01-23 09:18:26"
2660;108;""0"";49;5;17;217970;2;2;"2020-01-23 09:22:09"
2661;108;""0"";50;3;6;54880;2;2;"2020-01-23 09:27:58"
2662;108;""0"";51;5;31;51620;2;2;"2020-01-23 09:28:51"
2663;108;""0"";52;3;21;53870;2;2;"2020-01-23 09:29:47"
2664;108;""0"";53;5;14;289300;4;2;"2020-01-23 09:34:41"
2665;108;""0"";54;5;45;70040;2;0;"2020-01-23 09:35:53"
2666;108;""0"";55;5;10;43060;2;2;"2020-01-23 09:36:38"
2667;108;""0"";56;5;19;17150;2;0;"2020-01-23 09:36:57"
2668;108;""0"";57;3;2;106670;2;2;"2020-01-23 09:38:47"
2669;108;""0"";58;3;33;20150;2;0;"2020-01-23 09:39:08"
2670;108;""0"";59;5;39;26370;2;0;"2020-01-23 09:39:37"
2671;108;""0"";60;3;30;60750;4;2;"2020-01-23 09:40:40"
2672;127;""0"";1;3;17;331050;2;1;"2020-01-23 09:54:49"
2673;127;""0"";2;3;7;41220;2;0;"2020-01-23 09:55:34"
2674;127;""0"";3;3;26;711760;2;2;"2020-01-23 10:07:29"
2675;127;""0"";4;5;60;330570;3;0;"2020-01-23 10:13:01"
2676;115;""1"";4;5;31;271910;0;2;"2020-01-23 10:13:16"
2677;115;""1"";5;5;30;269170;4;2;"2020-01-23 10:17:48"
2678;115;""1"";6;3;50;43950;2;0;"2020-01-23 10:18:34"
2679;115;""1"";7;5;43;11560;0;2;"2020-01-23 10:18:47"
2680;115;""1"";8;3;45;30550;2;0;"2020-01-23 10:19:19"
2681;127;""0"";5;3;1;595230;0;2;"2020-01-23 10:23:00"
2682;127;""0"";6;5;44;186440;2;0;"2020-01-23 10:26:11"
2683;127;""0"";7;5;23;207500;3;0;"2020-01-23 10:46:18"
2684;127;""0"";8;3;3;770810;0;0;"2020-01-23 10:59:12"
2685;127;""0"";9;3;52;164130;2;0;"2020-01-23 11:01:57"
2686;127;""0"";10;3;12;273890;0;2;"2020-01-23 11:06:34"
2687;127;""0"";11;3;55;112740;0;2;"2020-01-23 11:25:24"
2688;127;""0"";12;5;37;219140;1;1;"2020-01-23 11:29:06"
2689;127;""0"";13;5;39;39820;2;0;"2020-01-23 11:29:47"
2690;127;""0"";14;5;14;465780;0;2;"2020-01-23 11:37:39"
2691;127;""0"";15;5;25;403560;1;2;"2020-01-23 11:44:27"
2692;127;""0"";16;5;32;598370;0;0;"2020-01-23 11:54:31"
2693;127;""0"";17;5;58;1261250;0;2;"2020-01-23 12:23:57"
2694;127;""0"";18;3;34;607770;0;2;"2020-01-23 12:34:16"
2695;127;""0"";19;5;11;542220;0;2;"2020-01-23 12:43:27"
2696;127;""0"";20;3;4;1561660;0;2;"2020-01-23 13:19:06"
2697;127;""0"";21;5;53;565170;0;0;"2020-01-23 15:02:03"
2698;127;""0"";22;3;2;146620;0;0;"2020-01-23 15:04:45"
2699;127;""0"";23;3;21;696930;0;2;"2020-01-23 15:28:12"
2700;127;""0"";24;3;43;804860;0;2;"2020-01-23 15:42:42"
2701;127;""0"";25;5;5;976350;0;2;"2020-01-23 17:01:30"
2702;123;""0"";1;3;11;88150;0;2;"2020-01-24 08:21:16"
2703;123;""0"";2;3;44;193560;2;1;"2020-01-24 08:24:33"
2704;123;""0"";3;5;35;117070;0;2;"2020-01-24 08:26:41"
2705;123;""0"";4;3;42;390720;4;2;"2020-01-24 08:33:13"
2706;123;""0"";5;5;25;180100;2;2;"2020-01-24 08:54:23"
2707;123;""0"";6;3;20;34950;4;2;"2020-01-24 08:55:00"
2708;123;""0"";7;5;31;79070;2;2;"2020-01-24 08:56:41"
2709;123;""0"";8;5;48;378120;2;2;"2020-01-24 09:03:03"
2710;123;""0"";9;5;58;434150;4;2;"2020-01-24 09:10:20"
2711;123;""0"";10;3;2;160380;2;0;"2020-01-24 09:13:03"
2712;123;""0"";11;5;51;147840;1;2;"2020-01-24 09:15:33"
2713;123;""0"";12;5;3;148510;1;2;"2020-01-24 09:18:03"
2714;123;""0"";13;3;52;398930;2;1;"2020-01-24 09:24:44"
2715;123;""0"";14;5;56;58300;2;0;"2020-01-24 09:25:44"
2716;123;""0"";15;3;59;162310;2;2;"2020-01-24 09:28:36"
2717;123;""0"";16;3;49;123380;2;2;"2020-01-24 09:30:42"
2718;123;""0"";17;5;40;201010;3;2;"2020-01-24 09:34:10"
2719;123;""0"";18;3;45;28390;2;1;"2020-01-24 09:34:40"
2720;127;""0"";26;5;13;54090;2;0;"2020-01-24 09:41:42"
2721;127;""0"";27;5;38;374590;0;1;"2020-01-24 09:48:01"
2722;123;""0"";19;3;6;174950;2;2;"2020-01-24 09:48:09"
2723;123;""0"";20;5;53;95790;2;0;"2020-01-24 09:49:48"
2724;123;""0"";21;3;55;60700;0;2;"2020-01-24 09:50:51"
2725;127;""0"";28;3;18;223870;4;2;"2020-01-24 09:51:49"
2726;123;""0"";22;5;23;60650;2;0;"2020-01-24 09:51:54"
2727;127;""0"";29;5;54;154660;2;0;"2020-01-24 09:54:27"
2728;123;""0"";23;3;21;161990;2;2;"2020-01-24 09:54:38"
2729;123;""0"";24;5;24;72650;2;0;"2020-01-24 09:55:52"
2730;123;""0"";25;3;22;40000;2;0;"2020-01-24 09:56:34"
2731;127;""0"";30;5;35;136410;0;2;"2020-01-24 09:56:47"
2732;123;""0"";26;5;29;53380;1;2;"2020-01-24 09:57:29"
2733;123;""0"";27;5;36;194430;4;2;"2020-01-24 10:00:46"
2734;123;""0"";28;5;9;142600;2;2;"2020-01-24 10:03:11"
2735;123;""0"";29;3;43;30420;0;2;"2020-01-24 10:03:43"
2736;127;""0"";31;3;29;523070;0;2;"2020-01-24 10:05:39"
2737;123;""0"";30;3;30;371290;4;2;"2020-01-24 10:09:56"
2738;127;""0"";32;5;59;307830;0;2;"2020-01-24 10:10:51"
2739;123;""0"";31;5;46;164690;3;1;"2020-01-24 10:12:43"
2740;123;""0"";32;3;60;197280;2;2;"2020-01-24 10:16:02"
2741;123;""0"";33;5;7;19150;1;2;"2020-01-24 10:16:22"
2742;127;""0"";33;3;49;332030;0;2;"2020-01-24 10:16:26"
2743;123;""0"";34;5;4;176840;4;1;"2020-01-24 10:19:21"
2744;123;""0"";35;3;54;145360;4;2;"2020-01-24 10:21:49"
2745;127;""0"";34;3;16;420810;0;0;"2020-01-24 10:23:32"
2746;123;""0"";36;5;41;172270;2;2;"2020-01-24 10:24:44"
2747;127;""0"";35;3;56;267600;2;0;"2020-01-24 10:28:03"
2748;123;""0"";37;5;8;252140;4;2;"2020-01-24 10:29:00"
2749;127;""0"";36;5;45;98550;0;0;"2020-01-24 10:29:44"
2750;123;""0"";38;5;12;107130;2;0;"2020-01-24 10:30:49"
2751;123;""0"";39;5;26;211940;2;2;"2020-01-24 10:34:23"
2752;127;""0"";37;3;10;334850;0;2;"2020-01-24 10:35:24"
2753;123;""0"";40;3;32;95170;2;0;"2020-01-24 10:36:03"
2754;123;""0"";41;3;16;107140;2;1;"2020-01-24 10:37:52"
2755;123;""0"";42;5;15;68980;2;0;"2020-01-24 10:39:03"
2756;123;""0"";43;5;18;27400;4;2;"2020-01-24 10:39:32"
2757;123;""0"";44;3;13;38420;2;0;"2020-01-24 10:40:13"
2758;123;""0"";45;3;33;37250;2;1;"2020-01-24 10:40:53"
2759;123;""0"";46;3;19;42500;2;1;"2020-01-24 10:41:37"
2760;123;""0"";47;3;39;21560;2;0;"2020-01-24 10:42:00"
2761;127;""0"";38;3;42;398460;0;1;"2020-01-24 10:42:07"
2762;123;""0"";48;3;38;146610;2;2;"2020-01-24 10:44:29"
2763;123;""0"";49;3;37;75050;2;1;"2020-01-24 10:45:46"
2764;127;""0"";39;3;28;306280;2;0;"2020-01-24 10:47:17"
2765;123;""0"";50;3;1;327820;0;2;"2020-01-24 10:59:30"
2766;127;""0"";41;5;51;156240;0;2;"2020-01-24 11:00:28"
2767;127;""0"";42;3;19;11390;2;0;"2020-01-24 11:00:41"
2768;127;""0"";43;3;27;13730;2;0;"2020-01-24 11:00:56"
2769;123;""0"";51;5;10;149800;2;2;"2020-01-24 11:02:02"
2770;123;""0"";52;3;27;14680;2;0;"2020-01-24 11:02:24"
2771;123;""0"";53;3;28;359280;4;2;"2020-01-24 11:08:26"
2772;127;""0"";44;5;8;521760;1;2;"2020-01-24 11:09:49"
2773;123;""0"";54;5;47;342800;0;2;"2020-01-24 11:14:11"
2774;127;""0"";45;5;57;480630;0;2;"2020-01-24 11:17:57"
2775;123;""0"";55;5;5;340760;2;2;"2020-01-24 11:19:54"
2776;127;""0"";46;3;41;273820;2;1;"2020-01-24 11:22:36"
2777;123;""0"";56;5;14;502320;3;2;"2020-01-24 11:28:20"
2778;115;""1"";9;3;58;121190;4;2;"2020-01-24 11:30:03"
2779;123;""0"";57;3;57;107400;0;2;"2020-01-24 11:30:08"
2780;123;""0"";58;5;17;27960;1;1;"2020-01-24 11:30:38"
2781;115;""1"";10;3;9;550240;2;2;"2020-01-24 11:39:17"
2782;123;""0"";59;3;34;608500;4;2;"2020-01-24 11:40:49"
2783;123;""0"";60;5;50;65580;3;1;"2020-01-24 11:41:56"
2784;115;""1"";11;3;59;251090;0;2;"2020-01-24 11:43:30"
2785;115;""1"";12;5;47;299740;2;2;"2020-01-24 11:48:31"
2786;115;""1"";13;5;49;333150;0;2;"2020-01-24 12:10:21"
2787;127;""0"";47;3;47;1800000;2;2;"2020-01-24 12:12:06"
2788;127;""0"";48;3;50;65480;2;0;"2020-01-24 12:13:14"
2789;115;""1"";14;3;21;212840;0;2;"2020-01-24 12:13:56"
2790;127;""0"";49;5;20;432210;4;2;"2020-01-24 12:20:36"
2791;127;""0"";50;5;40;253740;3;2;"2020-01-24 12:24:54"
2792;127;""0"";51;3;15;42200;2;0;"2020-01-24 12:25:39"
2793;127;""0"";52;3;6;232450;2;2;"2020-01-24 12:29:36"
2794;127;""0"";53;3;46;296810;0;1;"2020-01-24 12:34:36"
2795;127;""0"";54;3;9;309260;0;2;"2020-01-24 12:39:57"
2796;127;""0"";55;5;33;10680;2;0;"2020-01-24 12:40:09"
2797;127;""0"";56;5;31;106390;2;2;"2020-01-24 12:41:59"
2798;127;""0"";57;5;22;205520;2;0;"2020-01-24 14:19:01"
2799;127;""0"";58;5;24;33850;2;1;"2020-01-24 14:19:36"
2800;127;""0"";59;5;48;222090;0;1;"2020-01-24 14:24:17"
2801;127;""0"";60;5;30;447770;4;2;"2020-01-24 16:11:23"
2802;128;""1"";1;5;47;1318740;2;2;"2020-01-24 20:01:22"
2803;128;""1"";2;5;12;294260;3;2;"2020-01-24 20:06:26"
2804;128;""1"";3;3;34;322300;2;2;"2020-01-24 20:11:52"
2805;128;""1"";4;5;5;453990;2;2;"2020-01-24 20:19:31"
2806;128;""1"";5;5;51;86160;0;2;"2020-01-24 20:21:00"
2807;128;""1"";6;5;2;83310;2;0;"2020-01-24 20:22:26"
2808;128;""1"";7;5;13;109720;2;0;"2020-01-24 20:24:19"
2809;128;""1"";8;5;50;208400;2;0;"2020-01-24 20:27:52"
2810;128;""1"";9;3;6;39880;2;2;"2020-01-24 20:28:34"
2811;128;""1"";10;3;55;182050;0;2;"2020-01-24 20:31:40"
2812;128;""1"";11;3;45;238200;2;2;"2020-01-24 20:35:43"
2813;128;""1"";12;5;31;130830;2;2;"2020-01-25 23:15:23"
2814;128;""1"";13;3;38;62050;2;0;"2020-01-25 23:16:28"
2815;128;""1"";14;5;37;229050;1;2;"2020-01-25 23:20:21"
2816;128;""1"";15;3;39;73040;2;0;"2020-01-25 23:21:37"
2817;128;""1"";16;5;3;138980;2;2;"2020-01-25 23:23:59"
2818;128;""1"";17;5;25;151730;2;2;"2020-01-25 23:26:34"
2819;128;""1"";18;5;22;30740;2;2;"2020-01-25 23:27:07"
2820;128;""1"";19;3;19;42630;2;0;"2020-01-25 23:27:53"
2821;129;""0"";1;3;33;107090;2;0;"2020-01-27 09:41:36"
2822;129;""0"";2;3;22;41510;2;0;"2020-01-27 09:42:23"
2823;129;""0"";3;3;9;168000;2;2;"2020-01-27 09:45:14"
2824;129;""0"";4;5;41;187790;1;2;"2020-01-27 09:48:26"
2825;129;""0"";5;3;30;318900;2;2;"2020-01-27 09:53:47"
2826;129;""0"";6;3;47;269100;2;2;"2020-01-27 10:02:43"
2827;129;""0"";7;3;16;123460;2;0;"2020-01-27 10:04:50"
2828;129;""0"";8;3;5;369080;0;2;"2020-01-27 10:11:01"
2829;129;""0"";9;3;35;72100;0;2;"2020-01-27 10:12:16"
2830;129;""0"";10;5;8;579460;4;2;"2020-01-27 10:21:56"
2831;124;""1"";17;3;5;546540;2;2;"2020-01-27 10:52:20"
2832;124;""1"";18;3;42;345770;4;2;"2020-01-27 10:58:08"
2833;124;""1"";19;3;10;254440;2;2;"2020-01-27 11:02:36"
2834;124;""1"";20;3;2;541970;0;2;"2020-01-27 11:11:40"
2835;124;""1"";21;5;20;112530;4;2;"2020-01-27 11:13:35"
2836;124;""1"";22;5;1;422330;0;2;"2020-01-27 11:20:41"
2837;124;""1"";23;5;7;9310;0;0;"2020-01-27 11:20:53"
2838;124;""1"";24;5;59;268670;0;2;"2020-01-27 11:25:26"
2839;124;""1"";25;5;26;362450;3;2;"2020-01-27 11:31:29"
2840;124;""1"";26;5;54;249290;4;2;"2020-01-27 11:35:40"
2841;124;""1"";27;3;15;60890;2;2;"2020-01-27 11:36:44"
2842;124;""1"";28;3;25;104840;0;2;"2020-01-27 11:38:31"
2843;124;""1"";29;5;39;45680;2;0;"2020-01-27 11:39:20"
2844;124;""1"";30;5;14;270700;0;2;"2020-01-27 11:43:54"
2845;124;""1"";31;5;48;22050;2;2;"2020-01-27 11:44:18"
2846;124;""1"";32;5;57;43250;0;2;"2020-01-27 11:45:04"
2847;124;""1"";33;3;35;11190;0;2;"2020-01-27 11:45:18"
2848;124;""1"";34;5;31;16130;0;2;"2020-01-27 11:45:37"
2849;114;""0"";5;3;56;125410;2;2;"2020-01-28 09:39:41"
2850;114;""0"";6;3;10;83100;2;2;"2020-01-28 09:41:06"
2851;114;""0"";7;5;21;151650;0;2;"2020-01-28 09:43:40"
2852;114;""0"";8;5;50;114880;0;1;"2020-01-28 09:45:37"
2853;114;""0"";9;3;39;176210;0;0;"2020-01-28 10:00:21"
2854;114;""0"";10;3;47;412100;0;2;"2020-01-28 10:07:18"
2855;114;""0"";11;5;22;68250;0;2;"2020-01-28 10:08:28"
2856;114;""0"";12;3;34;253280;4;2;"2020-01-28 10:12:44"
2857;114;""0"";13;5;11;252330;0;2;"2020-01-28 10:17:01"
2858;115;""1"";15;3;11;179710;0;2;"2020-01-28 10:18:18"
2859;115;""1"";16;3;60;249530;2;2;"2020-01-28 10:22:30"
2860;114;""0"";14;5;5;746780;0;2;"2020-01-28 10:29:31"
2861;114;""0"";15;5;30;54410;4;2;"2020-01-28 10:30:33"
2862;115;""1"";17;3;6;520650;4;2;"2020-01-28 10:31:13"
2863;115;""1"";18;3;4;134630;4;2;"2020-01-28 10:33:29"
2864;114;""0"";16;5;25;109970;0;2;"2020-01-28 10:38:25"
2865;117;""1"";21;3;51;26470;0;2;"2020-01-28 13:09:07"
2866;117;""1"";22;3;16;264680;4;2;"2020-01-28 13:13:41"
2867;117;""1"";23;3;44;124760;2;1;"2020-01-28 13:18:35"
2868;117;""1"";24;3;5;93310;0;2;"2020-01-28 13:20:14"
2869;117;""1"";25;5;47;290670;1;2;"2020-01-28 16:07:02"
2870;117;""1"";26;5;25;89110;0;2;"2020-01-28 16:08:39"
2871;115;""1"";19;5;29;13980;0;2;"2020-01-29 09:47:30"
2872;115;""1"";20;5;24;347310;2;2;"2020-01-29 09:53:20"
2873;115;""1"";21;5;35;50790;0;2;"2020-01-29 09:54:12"
2874;115;""1"";22;5;41;140270;0;2;"2020-01-29 09:56:34"
2875;115;""1"";23;3;26;304610;2;2;"2020-01-29 10:01:41"
2876;115;""1"";24;5;10;212360;1;2;"2020-01-29 10:05:15"
2877;115;""1"";25;5;44;57590;2;2;"2020-01-29 10:06:14"
2878;115;""1"";26;5;25;166140;0;2;"2020-01-29 10:09:02"
2879;115;""1"";27;3;48;57920;2;2;"2020-01-29 10:10:02"
2880;131;""0"";1;3;54;224430;4;2;"2020-01-29 14:25:18"
2881;131;""0"";2;3;45;268700;2;0;"2020-01-29 14:29:53"
2882;131;""0"";3;5;50;288780;3;0;"2020-01-29 14:49:54"
2883;131;""0"";4;5;9;146210;0;2;"2020-01-29 14:52:54"
2884;131;""0"";5;3;22;60660;2;2;"2020-01-29 14:54:01"
2885;131;""0"";6;3;27;134750;2;0;"2020-01-29 14:56:23"
2886;130;""1"";1;5;40;411300;3;2;"2020-01-29 20:20:13"
2887;130;""1"";2;5;50;692170;2;0;"2020-01-29 20:32:06"
2888;124;""1"";35;3;44;309180;2;1;"2020-01-30 06:49:23"
2889;115;""1"";28;3;2;383110;2;2;"2020-01-30 10:05:39"
2890;115;""1"";29;3;22;27840;2;2;"2020-01-30 10:06:08"
2891;115;""1"";30;5;56;175760;2;2;"2020-01-30 10:09:06"
2892;129;""0"";11;5;18;151370;4;2;"2020-01-30 10:10:17"
2893;129;""0"";12;5;43;33610;0;2;"2020-01-30 10:10:54"
2894;115;""1"";31;5;42;288530;4;2;"2020-01-30 10:13:56"
2895;129;""0"";13;3;34;205320;2;2;"2020-01-30 10:14:23"
2896;129;""0"";14;3;38;110720;2;0;"2020-01-30 10:16:18"
2897;115;""1"";32;5;38;262070;2;2;"2020-01-30 10:18:20"
2898;129;""0"";15;3;37;124620;2;0;"2020-01-30 10:18:27"
2899;129;""0"";16;5;50;20370;2;0;"2020-01-30 10:18:50"
2900;129;""0"";17;3;27;22670;2;0;"2020-01-30 10:19:15"
2901;129;""0"";18;3;45;8970;2;0;"2020-01-30 10:19:27"
2902;129;""0"";19;5;48;135280;2;0;"2020-01-30 10:21:46"
2903;129;""0"";20;5;29;11130;0;2;"2020-01-30 10:22:00"
2904;115;""1"";33;5;14;409790;4;2;"2020-01-30 10:25:13"
2905;130;""1"";3;3;4;345780;4;2;"2020-01-30 10:34:25"
2906;130;""1"";4;5;1;563610;1;2;"2020-01-30 10:43:59"
2907;130;""1"";5;3;26;693220;2;2;"2020-01-30 11:00:01"
2908;130;""1"";6;3;46;686980;2;2;"2020-01-30 11:31:26"
2909;130;""1"";7;5;6;459950;4;2;"2020-01-30 11:46:38"
2910;112;""1"";23;5;44;526040;3;2;"2020-01-30 11:49:56"
2911;112;""1"";24;5;13;138010;1;1;"2020-01-30 11:52:16"
2912;112;""1"";25;5;17;113980;0;2;"2020-01-30 11:54:11"
2913;112;""1"";26;5;47;288540;2;2;"2020-01-30 11:59:05"
2914;130;""1"";8;3;49;851110;2;2;"2020-01-30 12:01:28"
2915;112;""1"";27;3;30;162940;4;2;"2020-01-30 13:56:23"
2916;112;""1"";28;3;6;197950;2;2;"2020-01-30 14:44:06"
5311;126;""1"";1;3;55;34840;0;2;"2020-07-02 11:55:13"
2918;112;""1"";30;5;22;137020;2;2;"2020-01-30 14:47:33"
2919;112;""1"";31;5;27;149200;2;0;"2020-01-30 14:55:47"
2920;112;""1"";32;3;19;158890;2;1;"2020-01-30 15:01:47"
2921;112;""1"";33;3;23;193910;0;2;"2020-01-30 15:05:11"
2922;112;""1"";34;3;40;343510;4;2;"2020-01-30 15:10:55"
2923;112;""1"";35;5;11;151400;0;2;"2020-01-30 15:13:29"
2924;120;""0"";1;3;17;177140;0;2;"2020-01-31 08:37:37"
2925;120;""0"";2;5;41;82120;2;2;"2020-01-31 08:39:05"
2926;120;""0"";3;5;11;178040;0;2;"2020-01-31 08:42:13"
2927;120;""0"";4;5;20;20210;4;2;"2020-01-31 08:42:36"
2928;120;""0"";5;3;22;45590;2;0;"2020-01-31 08:43:24"
2929;120;""0"";6;3;16;314610;4;2;"2020-01-31 08:48:56"
2930;120;""0"";7;3;32;397270;4;2;"2020-01-31 08:55:57"
2931;120;""0"";8;5;7;11870;2;0;"2020-01-31 08:56:10"
2932;120;""0"";9;5;2;63110;2;1;"2020-01-31 08:57:47"
2933;120;""0"";10;5;42;83670;4;2;"2020-01-31 08:59:16"
2934;120;""0"";11;3;53;160650;2;2;"2020-01-31 09:02:07"
2935;120;""0"";12;5;55;37740;0;2;"2020-01-31 09:02:48"
2936;120;""0"";13;3;52;248340;4;2;"2020-01-31 09:07:11"
2937;120;""0"";14;3;4;81350;4;2;"2020-01-31 09:08:37"
2938;131;""0"";7;5;48;465260;1;2;"2020-01-31 09:12:48"
2939;120;""0"";15;5;28;263770;3;2;"2020-01-31 09:13:16"
2940;120;""0"";16;3;57;53380;0;2;"2020-01-31 09:14:14"
2941;120;""0"";17;5;35;13050;0;2;"2020-01-31 09:14:28"
2942;131;""0"";8;3;33;336180;0;2;"2020-01-31 09:18:27"
2943;120;""0"";18;5;36;227360;4;2;"2020-01-31 09:18:28"
2944;120;""0"";19;3;23;67610;2;1;"2020-01-31 09:19:41"
2945;120;""0"";20;3;18;15070;4;2;"2020-01-31 09:19:58"
2946;131;""0"";9;5;19;134050;0;1;"2020-01-31 09:20:44"
2947;120;""0"";21;5;26;48720;2;2;"2020-01-31 09:20:51"
2948;131;""0"";10;3;43;55000;0;2;"2020-01-31 09:21:56"
2949;120;""0"";22;3;1;871620;0;2;"2020-01-31 09:36:05"
2950;120;""0"";23;5;9;57720;0;2;"2020-01-31 09:37:48"
2951;120;""0"";24;5;51;10670;0;2;"2020-01-31 09:38:01"
2952;120;""0"";25;3;10;73530;2;2;"2020-01-31 09:39:20"
2953;120;""0"";26;3;46;389700;2;2;"2020-01-31 09:46:32"
2954;120;""0"";27;5;8;107470;4;2;"2020-01-31 09:48:26"
2955;120;""0"";28;3;13;15340;2;1;"2020-01-31 09:48:45"
2956;120;""0"";29;5;58;156030;4;2;"2020-01-31 09:51:30"
2957;120;""0"";30;5;45;113600;2;1;"2020-01-31 09:53:32"
2958;116;""0"";15;3;7;151770;2;0;"2020-01-31 12:32:45"
2959;116;""0"";16;3;3;293580;2;2;"2020-01-31 12:55:22"
2960;116;""0"";17;3;33;414960;2;0;"2020-01-31 13:02:32"
2961;116;""0"";18;5;30;211820;4;2;"2020-01-31 13:06:06"
2962;120;""0"";31;5;14;372020;4;2;"2020-01-31 13:07:54"
2963;120;""0"";32;5;44;153200;3;1;"2020-01-31 13:10:38"
2964;120;""0"";33;5;50;186470;2;1;"2020-01-31 13:13:54"
2965;116;""0"";19;3;32;568860;4;2;"2020-01-31 13:15:37"
2966;120;""0"";34;3;12;222720;4;2;"2020-01-31 13:17:51"
2967;116;""0"";20;3;55;196140;0;2;"2020-01-31 13:18:56"
2968;120;""0"";35;3;3;67990;0;2;"2020-01-31 13:19:03"
2969;116;""0"";21;3;36;308040;4;2;"2020-01-31 13:24:07"
2970;120;""0"";36;3;34;301540;2;2;"2020-01-31 13:24:21"
2971;120;""0"";37;3;59;156730;0;2;"2020-01-31 13:27:07"
2972;120;""0"";38;5;24;91670;2;1;"2020-01-31 13:28:44"
2973;120;""0"";39;3;37;144570;2;2;"2020-01-31 13:31:18"
2974;120;""0"";40;3;21;158510;2;2;"2020-01-31 13:34:06"
2975;116;""0"";22;3;60;210590;4;2;"2020-01-31 13:36:47"
2976;120;""0"";41;5;47;275740;1;2;"2020-01-31 13:38:59"
2977;116;""0"";23;5;46;340060;3;2;"2020-01-31 13:42:30"
2978;116;""0"";24;3;53;258010;2;0;"2020-01-31 13:46:50"
2979;116;""0"";25;5;22;118590;2;2;"2020-01-31 13:48:51"
2980;116;""0"";26;5;23;790340;1;2;"2020-01-31 14:12:49"
2981;116;""0"";27;5;39;313600;2;0;"2020-01-31 14:18:04"
2982;116;""0"";28;5;44;716130;3;2;"2020-01-31 14:30:15"
2983;116;""0"";29;3;28;366600;4;2;"2020-01-31 14:36:25"
2985;130;""1"";10;3;13;112800;2;0;"2020-01-31 15:42:57"
2986;130;""1"";11;3;39;51220;2;0;"2020-01-31 15:43:52"
2987;130;""1"";12;3;21;215630;2;2;"2020-01-31 15:47:34"
2988;120;""0"";42;3;40;998470;4;2;"2020-01-31 15:49:26"
2989;130;""1"";13;5;45;218450;2;0;"2020-01-31 15:52:19"
2990;130;""1"";14;5;3;152130;1;2;"2020-01-31 16:16:34"
2991;130;""1"";15;3;41;169800;0;2;"2020-01-31 16:21:09"
2992;120;""0"";43;5;31;39360;1;2;"2020-02-03 08:08:21"
2993;120;""0"";44;3;5;123790;0;2;"2020-02-03 08:10:32"
2994;120;""0"";45;5;43;5870;0;2;"2020-02-03 08:10:40"
2995;120;""0"";46;3;48;46430;2;1;"2020-02-03 08:11:29"
2996;120;""0"";47;3;6;195680;2;2;"2020-02-03 08:15:00"
2997;120;""0"";48;5;49;101430;2;2;"2020-02-03 08:16:48"
2998;120;""0"";49;3;54;148930;4;2;"2020-02-03 08:19:26"
2999;120;""0"";50;3;25;65190;2;2;"2020-02-03 08:20:35"
3000;120;""0"";51;3;27;45320;2;0;"2020-02-03 08:21:24"
3001;120;""0"";52;5;38;155100;2;2;"2020-02-03 08:24:11"
3002;120;""0"";53;5;60;198300;3;2;"2020-02-03 08:27:40"
3003;120;""0"";54;3;33;111340;2;1;"2020-02-03 08:29:37"
3004;120;""0"";55;5;19;89940;1;1;"2020-02-03 08:31:22"
3005;120;""0"";56;5;15;112660;2;2;"2020-02-03 08:33:22"
3006;120;""0"";57;5;30;159270;4;2;"2020-02-03 08:36:12"
3007;120;""0"";58;3;56;226620;2;2;"2020-02-03 08:40:17"
3008;120;""0"";59;5;39;84340;2;0;"2020-02-03 08:42:15"
3009;120;""0"";60;3;29;4360;0;2;"2020-02-03 08:42:21"
3010;101;""0"";1;5;6;455180;3;2;"2020-02-03 10:59:23"
3011;129;""0"";21;5;4;356750;3;0;"2020-02-03 12:25:22"
3012;129;""0"";22;5;17;46380;0;0;"2020-02-03 12:26:11"
3013;129;""0"";23;5;54;282200;2;0;"2020-02-03 12:30:57"
3014;129;""0"";24;3;23;32870;2;0;"2020-02-03 12:31:33"
3015;129;""0"";25;5;52;141560;2;0;"2020-02-03 12:33:58"
3016;129;""0"";26;5;19;10250;2;0;"2020-02-03 12:34:10"
3017;129;""0"";27;5;55;88940;0;2;"2020-02-03 12:35:42"
3018;129;""0"";28;3;26;695390;2;0;"2020-02-03 12:47:21"
3019;129;""0"";29;5;53;280400;2;0;"2020-02-03 12:52:04"
3020;129;""0"";30;5;11;271480;0;2;"2020-02-03 12:56:39"
3021;130;""1"";16;5;11;77630;0;2;"2020-02-03 14:33:32"
3022;130;""1"";17;5;36;102940;4;2;"2020-02-03 14:35:18"
3023;130;""1"";18;5;42;442480;4;2;"2020-02-03 14:42:45"
3024;130;""1"";19;5;60;134920;2;0;"2020-02-03 14:45:03"
3025;130;""1"";20;5;2;120350;2;0;"2020-02-03 14:47:07"
3026;130;""1"";21;3;8;245720;4;2;"2020-02-03 14:54:20"
3027;130;""1"";22;3;38;97670;2;2;"2020-02-03 15:59:57"
3028;130;""1"";23;3;52;225870;4;2;"2020-02-03 16:04:18"
3029;130;""1"";24;5;16;281290;4;2;"2020-02-03 16:09:13"
3030;131;""0"";11;5;13;369200;1;1;"2020-02-04 07:46:06"
3031;131;""0"";12;5;1;217450;0;2;"2020-02-04 07:49:48"
3032;131;""0"";13;3;57;102630;0;2;"2020-02-04 07:51:36"
3033;131;""0"";14;5;30;217980;4;2;"2020-02-04 07:55:19"
3034;131;""0"";15;3;26;250240;2;2;"2020-02-04 08:11:46"
3035;131;""0"";16;3;20;73650;4;2;"2020-02-04 08:13:02"
3036;131;""0"";17;5;8;226250;4;2;"2020-02-04 08:16:51"
3037;131;""0"";18;3;36;239360;4;2;"2020-02-04 08:20:53"
3038;131;""0"";19;5;24;592030;3;0;"2020-02-04 08:32:28"
3039;131;""0"";20;5;15;363170;2;2;"2020-02-04 08:39:32"
3040;129;""0"";31;3;13;28240;2;0;"2020-02-04 09:14:30"
3041;129;""0"";32;3;58;263480;4;2;"2020-02-04 09:18:56"
3042;129;""0"";33;5;25;111330;2;2;"2020-02-04 09:20:51"
3043;129;""0"";34;5;59;224110;1;2;"2020-02-04 09:24:38"
3044;129;""0"";35;5;36;447560;3;2;"2020-02-04 09:32:07"
3045;129;""0"";36;5;49;102730;2;0;"2020-02-04 09:33:53"
3046;129;""0"";37;3;39;5870;2;0;"2020-02-04 09:34:02"
3047;129;""0"";37;3;39;5870;2;0;"2020-02-04 09:34:02"
3048;129;""0"";38;5;21;66620;2;0;"2020-02-04 09:35:11"
3049;129;""0"";39;3;42;272940;2;0;"2020-02-04 09:39:48"
3050;115;""1"";34;3;19;139870;2;2;"2020-02-04 10:36:01"
3051;115;""1"";35;5;39;33800;2;0;"2020-02-04 10:36:37"
3052;115;""1"";36;3;3;107390;0;2;"2020-02-04 10:38:26"
3053;115;""1"";37;3;51;67180;0;2;"2020-02-04 10:39:35"
3054;115;""1"";38;3;15;55100;2;2;"2020-02-04 10:40:31"
3055;115;""1"";39;5;54;394000;4;2;"2020-02-04 10:47:08"
3056;115;""1"";40;3;12;60280;2;2;"2020-02-04 10:48:09"
3057;115;""1"";41;5;37;89200;2;2;"2020-02-04 10:49:40"
3058;115;""1"";42;3;53;263900;0;2;"2020-02-04 10:54:07"
3059;128;""1"";20;3;35;921120;0;2;"2020-02-04 13:46:33"
3060;128;""1"";21;5;7;42090;2;0;"2020-02-04 13:47:19"
3061;129;""0"";40;3;7;20400;2;0;"2020-02-05 07:57:28"
3062;129;""0"";41;3;57;248890;0;2;"2020-02-05 08:01:54"
3063;129;""0"";42;5;10;164410;1;2;"2020-02-05 08:04:41"
3064;129;""0"";43;5;31;14720;2;0;"2020-02-05 08:04:58"
3065;129;""0"";44;5;40;163260;2;2;"2020-02-05 08:20:40"
3066;129;""0"";45;3;12;161030;2;2;"2020-02-05 08:23:25"
3067;129;""0"";46;5;3;52630;1;0;"2020-02-05 08:24:20"
3068;129;""0"";47;3;15;26960;2;0;"2020-02-05 08:24:50"
3069;129;""0"";48;3;6;25680;2;0;"2020-02-05 08:25:19"
3070;129;""0"";49;5;14;587400;3;2;"2020-02-05 08:35:09"
3071;129;""0"";50;3;56;73240;0;0;"2020-02-05 08:36:25"
3072;112;""1"";36;3;58;187300;4;2;"2020-02-05 08:46:12"
3073;112;""1"";37;5;26;297470;4;2;"2020-02-05 08:51:16"
3074;112;""1"";38;3;32;289380;4;2;"2020-02-05 08:56:07"
3075;112;""1"";39;5;59;234770;1;2;"2020-02-05 09:00:04"
3076;112;""1"";40;3;15;136040;2;2;"2020-02-05 09:02:21"
3077;112;""1"";41;5;38;350960;1;2;"2020-02-05 09:08:14"
3078;115;""1"";43;3;13;58430;2;0;"2020-02-05 10:11:02"
3079;115;""1"";44;3;5;307550;0;2;"2020-02-05 10:16:12"
3080;115;""1"";45;5;46;138620;3;2;"2020-02-05 10:18:33"
3081;115;""1"";46;3;8;168350;4;2;"2020-02-05 10:21:23"
3082;115;""1"";47;5;55;69760;0;2;"2020-02-05 10:22:34"
3083;115;""1"";48;3;20;19780;4;2;"2020-02-05 10:22:56"
3084;115;""1"";49;3;18;37490;4;2;"2020-02-05 10:23:36"
3085;124;""1"";36;3;37;28310;2;1;"2020-02-05 10:47:08"
3086;124;""1"";37;5;33;15050;2;1;"2020-02-05 10:47:28"
3087;124;""1"";38;3;53;246240;0;2;"2020-02-05 10:51:37"
3088;124;""1"";39;5;45;41370;2;1;"2020-02-05 10:52:21"
3089;124;""1"";40;3;43;27990;0;2;"2020-02-05 10:52:52"
3090;124;""1"";41;3;4;146040;4;1;"2020-02-05 10:55:20"
3091;124;""1"";42;3;49;12130;2;2;"2020-02-05 10:55:34"
3092;124;""1"";43;3;17;69660;2;1;"2020-02-05 10:56:47"
3093;124;""1"";44;3;27;33730;2;0;"2020-02-05 10:57:25"
3094;124;""1"";45;5;13;94610;2;0;"2020-02-05 10:59:05"
3095;124;""1"";46;3;19;8310;2;0;"2020-02-05 10:59:15"
3096;124;""1"";47;5;24;138780;2;0;"2020-02-05 11:01:36"
3097;124;""1"";48;3;3;107470;2;2;"2020-02-05 11:03:25"
3098;124;""1"";49;5;23;7490;2;0;"2020-02-05 11:03:35"
3099;124;""1"";50;5;47;359060;0;2;"2020-02-05 11:09:37"
3100;124;""1"";51;5;36;181030;4;2;"2020-02-05 11:12:40"
3101;124;""1"";52;3;51;54540;0;2;"2020-02-05 11:13:37"
3102;124;""1"";53;3;52;156050;4;2;"2020-02-05 11:16:17"
3103;132;""1"";1;5;53;276990;0;2;"2020-02-05 11:18:57"
3104;124;""1"";54;3;9;209940;2;2;"2020-02-05 11:19:49"
3105;124;""1"";55;5;56;86270;2;2;"2020-02-05 11:21:17"
3106;124;""1"";56;3;21;8980;2;2;"2020-02-05 11:21:28"
3107;124;""1"";57;5;8;101570;4;2;"2020-02-05 11:23:11"
3108;124;""1"";58;5;58;177440;0;2;"2020-02-05 11:26:10"
3109;124;""1"";59;5;60;33890;2;0;"2020-02-05 11:26:46"
3110;124;""1"";60;5;55;34340;0;2;"2020-02-05 11:27:23"
3111;132;""1"";2;3;45;764050;0;1;"2020-02-05 11:36:18"
3112;132;""1"";3;3;17;154880;0;0;"2020-02-05 11:38:55"
3113;132;""1"";4;3;38;532920;0;0;"2020-02-05 11:59:05"
3114;132;""1"";5;3;59;561460;0;2;"2020-02-05 12:08:29"
3115;116;""0"";30;5;38;489330;2;0;"2020-02-05 13:13:59"
3116;116;""0"";31;5;18;72110;4;2;"2020-02-05 13:15:13"
3117;116;""0"";32;5;35;79850;0;2;"2020-02-05 13:16:36"
3118;116;""0"";33;3;1;293190;0;2;"2020-02-05 13:22:24"
3119;116;""0"";34;5;41;486340;2;2;"2020-02-05 13:30:33"
3120;132;""1"";6;5;27;36300;2;0;"2020-02-05 13:31:12"
3121;116;""0"";35;5;11;277580;0;2;"2020-02-05 13:35:13"
3122;132;""1"";7;3;44;587000;2;1;"2020-02-05 13:41:01"
3123;116;""0"";36;5;15;322660;2;2;"2020-02-05 13:42:49"
3124;132;""1"";8;3;5;582500;0;2;"2020-02-05 13:50:46"
3125;132;""1"";9;5;39;116910;2;0;"2020-02-05 13:52:47"
3126;132;""1"";10;5;16;452000;3;2;"2020-02-05 14:00:21"
3127;132;""1"";11;5;8;632150;3;2;"2020-02-05 14:10:58"
3128;132;""1"";12;5;26;234910;2;1;"2020-02-05 14:14:57"
3129;132;""1"";13;3;49;356150;2;1;"2020-02-05 14:20:56"
3130;132;""1"";14;5;3;220370;1;1;"2020-02-05 14:24:39"
3131;132;""1"";15;3;43;70840;0;2;"2020-02-05 14:25:53"
3132;132;""1"";16;5;60;261840;2;1;"2020-02-05 14:30:17"
3133;132;""1"";17;5;32;226940;1;0;"2020-02-05 14:34:07"
3134;132;""1"";18;3;42;1373040;4;2;"2020-02-05 14:57:05"
3135;116;""0"";37;3;26;746840;4;2;"2020-02-05 15:23:28"
3136;116;""0"";38;3;19;143370;2;0;"2020-02-05 15:25:53"
3137;116;""0"";39;3;42;251840;4;2;"2020-02-05 15:30:07"
3138;116;""0"";40;5;20;88860;4;2;"2020-02-05 15:31:38"
3139;116;""0"";41;5;24;337140;2;0;"2020-02-05 15:37:18"
3140;99;""1"";1;3;27;16600;2;0;"2020-02-06 08:01:31"
3141;99;""1"";2;5;12;227000;1;2;"2020-02-06 08:08:17"
3142;99;""1"";3;5;52;203490;3;2;"2020-02-06 08:12:22"
3143;99;""1"";4;5;59;128460;1;2;"2020-02-06 08:14:35"
3144;99;""1"";5;5;42;255800;4;2;"2020-02-06 08:19:09"
3145;99;""1"";6;3;19;108140;2;1;"2020-02-06 08:21:01"
3146;99;""1"";7;5;11;104770;0;2;"2020-02-06 08:22:49"
3147;99;""1"";8;5;17;74180;0;2;"2020-02-06 08:24:07"
3148;99;""1"";9;5;3;93840;0;2;"2020-02-06 08:25:45"
3149;99;""1"";10;5;10;179950;2;2;"2020-02-06 08:28:48"
3150;99;""1"";11;3;39;34510;2;0;"2020-02-06 08:29:28"
3151;99;""1"";12;5;49;138860;1;2;"2020-02-06 08:35:23"
3152;99;""1"";13;3;16;138390;4;2;"2020-02-06 08:37:48"
3153;99;""1"";14;3;14;292420;0;2;"2020-02-06 08:42:45"
3154;99;""1"";15;3;21;151290;0;2;"2020-02-06 08:46:07"
3155;99;""1"";16;5;53;165170;1;2;"2020-02-06 08:48:58"
3156;99;""1"";17;3;46;444850;2;2;"2020-02-06 08:57:52"
3157;129;""0"";51;5;20;82440;4;2;"2020-02-06 09:20:15"
3158;129;""0"";52;3;28;173340;2;0;"2020-02-06 09:23:10"
3159;129;""0"";53;3;1;67010;2;2;"2020-02-06 09:24:19"
3160;129;""0"";54;5;51;125720;0;2;"2020-02-06 09:26:28"
3161;129;""0"";55;5;60;44940;2;0;"2020-02-06 09:27:15"
3162;129;""0"";56;5;2;51210;2;0;"2020-02-06 09:28:09"
3163;129;""0"";57;5;46;134010;3;0;"2020-02-06 09:30:26"
3164;129;""0"";58;3;24;5110;2;0;"2020-02-06 09:30:34"
3165;129;""0"";59;3;44;5720;2;0;"2020-02-06 09:30:42"
3166;129;""0"";60;3;32;93170;2;0;"2020-02-06 09:32:19"
3167;115;""1"";50;5;57;66930;0;2;"2020-02-06 09:41:48"
3168;115;""1"";51;3;17;190370;2;2;"2020-02-06 09:45:01"
3169;115;""1"";52;3;34;231740;2;2;"2020-02-06 09:48:54"
3170;115;""1"";53;5;23;127140;1;2;"2020-02-06 09:51:03"
3171;115;""1"";54;3;28;144010;4;2;"2020-02-06 09:53:29"
3172;115;""1"";55;3;27;16000;2;0;"2020-02-06 09:53:46"
3173;115;""1"";56;5;16;136720;4;2;"2020-02-06 09:56:06"
3174;115;""1"";57;5;36;82800;4;2;"2020-02-06 09:57:30"
3175;115;""1"";58;5;32;151650;4;2;"2020-02-06 10:00:04"
3176;115;""1"";59;5;33;15200;2;0;"2020-02-06 10:00:21"
3177;115;""1"";60;5;1;16110;1;2;"2020-02-06 10:05:54"
3178;99;""1"";18;3;35;44900;0;2;"2020-02-06 11:16:58"
3179;99;""1"";19;5;5;253240;0;2;"2020-02-06 11:21:16"
3180;99;""1"";20;3;6;261040;2;2;"2020-02-06 11:25:41"
3181;116;""0"";42;5;5;590530;0;2;"2020-02-06 12:22:30"
3182;116;""0"";43;3;40;235610;2;2;"2020-02-06 12:26:28"
3183;116;""0"";44;3;47;423540;2;2;"2020-02-06 12:33:34"
3184;116;""0"";45;5;57;197650;0;2;"2020-02-06 13:03:48"
3185;116;""0"";46;5;14;284750;4;2;"2020-02-06 13:20:11"
3186;116;""0"";47;5;59;230970;0;2;"2020-02-06 13:24:04"
3187;116;""0"";48;3;58;197970;4;2;"2020-02-06 13:27:25"
3188;116;""0"";49;5;56;309760;2;2;"2020-02-06 13:32:37"
3189;116;""0"";50;5;50;311550;2;0;"2020-02-06 13:46:18"
3190;116;""0"";51;3;12;628100;2;2;"2020-02-06 14:16:51"
3191;116;""0"";52;5;54;254720;4;2;"2020-02-06 14:26:52"
3192;116;""0"";53;3;25;196660;2;2;"2020-02-06 14:30:14"
3193;116;""0"";54;3;43;80770;0;2;"2020-02-06 14:31:37"
3194;116;""0"";55;3;29;94040;0;2;"2020-02-06 14:36:00"
3195;116;""0"";56;3;2;192570;2;0;"2020-02-06 14:39:15"
3196;116;""0"";57;3;4;353990;4;2;"2020-02-06 14:45:12"
3197;116;""0"";58;3;16;559970;4;2;"2020-02-06 15:04:07"
3198;117;""1"";27;5;15;174220;2;2;"2020-02-06 16:24:26"
3199;117;""1"";28;3;45;35080;2;0;"2020-02-06 16:25:04"
3200;117;""1"";29;5;38;210850;2;0;"2020-02-06 16:28:38"
3201;112;""1"";42;3;37;326950;0;2;"2020-02-06 16:39:32"
3202;112;""1"";43;3;4;209960;4;2;"2020-02-06 16:43:03"
3203;117;""1"";30;3;17;441270;0;2;"2020-02-06 16:44:39"
3204;117;""1"";31;3;42;51610;4;2;"2020-02-06 16:45:33"
3205;112;""1"";44;3;7;156780;2;0;"2020-02-06 16:45:42"
3206;117;""1"";32;5;8;97190;4;2;"2020-02-06 16:47:14"
3207;117;""1"";33;3;52;128950;4;2;"2020-02-06 16:49:29"
3208;112;""1"";45;3;24;190420;2;2;"2020-02-06 16:51:10"
3209;117;""1"";34;3;34;176770;2;2;"2020-02-06 16:52:30"
3210;112;""1"";46;5;3;84230;1;2;"2020-02-06 16:52:35"
3211;117;""1"";35;5;6;52680;2;1;"2020-02-06 16:53:25"
3212;112;""1"";47;5;8;168310;4;2;"2020-02-06 16:55:25"
3213;112;""1"";48;3;36;225200;4;2;"2020-02-06 16:59:12"
3214;112;""1"";49;3;49;86970;2;2;"2020-02-06 17:00:41"
3215;117;""1"";36;3;36;270430;4;2;"2020-02-06 17:01:54"
3216;117;""1"";37;3;26;436950;2;2;"2020-02-06 17:09:18"
3217;117;""1"";38;5;43;13860;0;2;"2020-02-06 17:09:35"
3218;117;""1"";39;5;27;16970;2;0;"2020-02-06 17:09:54"
3219;117;""1"";40;3;7;13320;0;1;"2020-02-06 17:10:10"
3220;117;""1"";41;5;58;202570;4;2;"2020-02-06 17:13:37"
3221;99;""1"";21;3;33;276970;2;2;"2020-02-07 09:16:11"
3222;99;""1"";22;3;34;110610;4;2;"2020-02-07 09:18:07"
3223;99;""1"";23;5;13;15930;2;0;"2020-02-07 09:21:16"
3224;99;""1"";24;3;22;61440;2;2;"2020-02-07 09:24:30"
3225;99;""1"";25;3;55;62720;0;2;"2020-02-07 09:25:40"
3226;99;""1"";26;3;30;110170;4;2;"2020-02-07 09:27:40"
3227;99;""1"";27;5;47;160020;2;2;"2020-02-07 09:30:36"
3228;99;""1"";28;3;56;163920;2;2;"2020-02-07 09:33:27"
3229;117;""1"";42;5;41;312480;0;2;"2020-02-07 13:06:29"
3230;117;""1"";43;5;18;39340;4;2;"2020-02-07 13:07:11"
3231;117;""1"";44;3;11;497730;0;2;"2020-02-07 13:15:41"
3232;117;""1"";45;3;50;64810;2;1;"2020-02-07 13:16:53"
3233;117;""1"";46;3;59;356430;0;2;"2020-02-07 13:22:56"
3234;117;""1"";47;5;22;53300;1;2;"2020-02-07 13:23:52"
3235;117;""1"";48;3;39;33570;2;1;"2020-02-07 13:24:32"
3236;117;""1"";49;3;48;331350;2;2;"2020-02-07 13:30:14"
3237;117;""1"";50;5;23;257910;1;1;"2020-02-07 13:34:39"
3238;117;""1"";51;3;13;255650;0;1;"2020-02-07 13:47:06"
3239;117;""1"";52;5;37;391820;0;2;"2020-02-07 13:53:46"
3240;117;""1"";53;5;10;292790;2;2;"2020-02-07 13:58:46"
3241;117;""1"";54;5;55;54310;0;2;"2020-02-07 13:59:44"
3242;117;""1"";55;5;31;99670;0;2;"2020-02-07 14:01:32"
3243;117;""1"";56;5;4;215440;4;2;"2020-02-07 14:05:16"
3244;117;""1"";57;5;57;31220;0;2;"2020-02-07 14:05:54"
3245;117;""1"";58;3;21;308610;0;2;"2020-02-07 14:11:16"
3246;117;""1"";59;5;19;85860;0;1;"2020-02-07 14:12:46"
3247;117;""1"";60;5;32;227840;4;2;"2020-02-07 14:16:43"
3248;116;""0"";59;3;21;594130;2;2;"2020-02-07 14:51:00"
3249;116;""0"";60;5;45;512080;1;2;"2020-02-07 14:59:34"
3250;109;""0"";1;5;48;265920;2;2;"2020-02-08 19:28:25"
3251;109;""0"";2;3;39;48800;2;1;"2020-02-08 19:29:17"
3252;109;""0"";3;3;55;28410;0;2;"2020-02-08 19:29:48"
3253;109;""0"";4;5;52;219410;4;2;"2020-02-08 19:33:31"
3254;109;""0"";5;5;53;134260;0;2;"2020-02-08 19:35:48"
3255;109;""0"";6;5;24;188230;2;1;"2020-02-08 19:39:08"
3256;109;""0"";7;3;6;484120;4;2;"2020-02-08 19:47:17"
3257;118;""0"";1;5;31;190690;0;2;"2020-02-09 13:25:46"
3258;118;""0"";2;3;26;835560;4;2;"2020-02-09 13:39:54"
3259;118;""0"";3;3;57;118420;0;2;"2020-02-09 13:41:55"
3260;118;""0"";4;5;38;480650;2;2;"2020-02-09 13:50:05"
3261;118;""0"";5;5;23;282230;0;2;"2020-02-09 13:54:52"
3262;118;""0"";6;3;36;308740;4;2;"2020-02-09 14:00:08"
3263;118;""0"";7;5;54;307070;4;2;"2020-02-09 14:05:21"
3264;118;""0"";8;3;12;268020;2;2;"2020-02-09 14:09:52"
3265;118;""0"";9;5;42;441160;4;2;"2020-02-09 14:17:41"
3266;118;""0"";10;5;49;361590;1;2;"2020-02-09 14:23:51"
3267;118;""0"";11;5;55;73610;0;2;"2020-02-09 14:25:08"
3268;118;""0"";12;5;51;75280;0;2;"2020-02-09 14:26:26"
3269;118;""0"";13;3;53;284410;2;2;"2020-02-09 14:31:14"
3270;118;""0"";14;3;50;113090;2;0;"2020-02-09 14:33:10"
3271;118;""0"";15;3;2;219500;2;2;"2020-02-09 14:37:03"
3272;118;""0"";16;5;25;327930;0;2;"2020-02-09 16:14:39"
3273;118;""0"";17;3;11;104160;0;2;"2020-02-09 16:16:28"
3274;118;""0"";18;5;21;487750;1;2;"2020-02-09 16:24:42"
3275;118;""0"";19;3;32;580730;4;2;"2020-02-09 16:34:34"
3276;118;""0"";20;3;34;439010;4;2;"2020-02-09 16:41:59"
3277;118;""0"";21;5;22;99050;2;2;"2020-02-09 16:43:40"
3278;118;""0"";22;3;44;447360;2;2;"2020-02-09 16:51:13"
3279;118;""0"";23;5;20;72270;4;2;"2020-02-09 16:52:29"
3280;118;""0"";24;5;58;138000;4;2;"2020-02-09 16:54:52"
3281;118;""0"";25;3;35;16240;0;2;"2020-02-09 16:55:10"
3282;118;""0"";26;3;5;556670;0;2;"2020-02-09 17:04:31"
3283;118;""0"";27;3;6;263510;2;2;"2020-02-09 17:08:59"
3284;118;""0"";28;3;24;221230;2;2;"2020-02-09 17:12:44"
3285;118;""0"";29;5;10;154490;2;2;"2020-02-09 17:15:21"
3286;118;""0"";30;3;48;216120;2;2;"2020-02-09 17:19:00"
3287;96;""0"";2;3;43;6070;4;2;"2020-02-09 18:02:25"
3288;104;""1"";1;3;7;29140;2;1;"2020-02-09 18:16:10"
3289;104;""1"";2;5;14;177680;0;2;"2020-02-09 18:19:17"
3290;104;""1"";3;3;40;541750;2;2;"2020-02-09 18:28:41"
3291;104;""1"";4;3;8;246110;4;2;"2020-02-09 18:32:52"
3292;104;""1"";5;3;25;239910;2;2;"2020-02-09 18:36:57"
3293;104;""1"";6;5;47;882670;0;2;"2020-02-09 18:51:50"
3294;104;""1"";7;5;13;65640;2;0;"2020-02-09 18:52:55"
3295;104;""1"";8;3;33;70770;2;1;"2020-02-09 18:54:12"
3296;118;""0"";31;5;52;394610;4;2;"2020-02-09 18:56:03"
3297;104;""1"";9;5;28;128500;3;1;"2020-02-09 18:56:25"
3298;118;""0"";32;3;41;206610;0;2;"2020-02-09 18:59:33"
3299;104;""1"";10;5;17;191050;0;1;"2020-02-09 18:59:39"
3300;104;""1"";11;5;51;47790;0;2;"2020-02-09 19:00:31"
3301;118;""0"";33;5;13;142950;1;1;"2020-02-09 19:01:58"
3302;118;""0"";34;3;30;171240;4;2;"2020-02-09 19:04:54"
3303;104;""1"";12;5;32;284310;3;2;"2020-02-09 19:05:22"
3304;118;""0"";35;3;37;209420;0;2;"2020-02-09 19:08:26"
3305;104;""1"";13;3;56;229200;0;2;"2020-02-09 19:10:57"
3306;104;""1"";14;3;38;61900;2;1;"2020-02-09 19:12:02"
3307;118;""0"";36;5;16;499680;4;2;"2020-02-09 19:16:53"
3308;104;""1"";15;5;60;461630;1;1;"2020-02-09 19:19:45"
3309;104;""1"";16;3;18;66180;4;2;"2020-02-09 19:20:57"
3310;118;""0"";37;5;8;365810;4;2;"2020-02-09 19:23:06"
3311;104;""1"";17;3;37;239720;2;1;"2020-02-09 19:24:57"
3312;104;""1"";18;5;20;43680;4;2;"2020-02-09 19:25:44"
3313;118;""0"";38;3;17;206970;0;2;"2020-02-09 19:26:39"
3314;118;""0"";39;5;15;254180;2;2;"2020-02-09 19:30:56"
3315;104;""1"";19;5;36;332620;4;2;"2020-02-09 19:31:22"
3316;104;""1"";20;5;45;248740;2;1;"2020-02-09 19:35:30"
3317;118;""0"";40;5;60;635990;2;2;"2020-02-09 19:41:39"
3318;104;""1"";21;3;9;288060;0;2;"2020-02-09 19:42:07"
3319;118;""0"";41;5;18;88240;4;2;"2020-02-09 19:43:13"
3320;104;""1"";22;5;59;222740;0;2;"2020-02-09 19:45:54"
3321;104;""1"";23;5;26;285480;2;1;"2020-02-09 19:51:19"
3322;104;""1"";24;5;6;146990;2;1;"2020-02-09 19:54:12"
3323;104;""1"";25;5;53;178380;0;2;"2020-02-09 19:58:31"
3324;118;""0"";42;5;14;940160;4;2;"2020-02-09 19:59:05"
3325;118;""0"";43;3;29;6290;0;2;"2020-02-09 19:59:14"
3326;118;""0"";44;3;19;57100;2;1;"2020-02-09 20:00:14"
3327;118;""0"";45;5;9;244100;1;2;"2020-02-09 20:04:22"
3328;104;""1"";26;5;30;395580;3;1;"2020-02-09 20:05:06"
3329;104;""1"";27;3;21;272890;0;1;"2020-02-09 20:09:45"
3330;118;""0"";46;5;33;356800;1;2;"2020-02-09 20:10:22"
3331;104;""1"";28;5;55;44740;0;2;"2020-02-09 20:10:30"
3332;118;""0"";47;5;43;11240;0;2;"2020-02-09 20:10:36"
3333;104;""1"";29;3;58;296770;4;2;"2020-02-09 20:15:32"
3334;104;""1"";30;5;24;247470;2;1;"2020-02-09 20:19:40"
3335;118;""0"";48;3;47;822860;2;2;"2020-02-09 20:24:30"
3336;118;""0"";49;5;59;353600;0;2;"2020-02-09 20:30:29"
3337;118;""0"";50;5;3;145660;0;2;"2020-02-09 20:32:58"
3338;118;""0"";51;3;56;504780;2;2;"2020-02-09 23:35:06"
3339;118;""0"";52;3;40;548590;4;2;"2020-02-09 23:44:19"
3340;118;""0"";53;3;39;60090;2;0;"2020-02-09 23:45:21"
3341;118;""0"";54;5;7;78550;1;1;"2020-02-09 23:46:42"
3342;118;""0"";55;5;46;391650;3;2;"2020-02-09 23:53:20"
3343;118;""0"";56;3;1;213220;0;2;"2020-02-09 23:56:56"
3344;118;""0"";57;5;28;304800;4;2;"2020-02-10 00:02:09"
3345;118;""0"";58;3;27;62140;2;0;"2020-02-10 00:03:13"
3346;118;""0"";59;3;45;186790;0;2;"2020-02-10 00:06:26"
3347;118;""0"";60;3;4;239300;4;2;"2020-02-10 00:10:30"
3348;135;""0"";1;5;59;188590;0;2;"2020-02-10 08:14:45"
3349;135;""0"";2;5;10;117240;2;2;"2020-02-10 08:17:52"
3350;135;""0"";3;5;57;85570;0;2;"2020-02-10 08:20:41"
3351;135;""0"";5;5;14;244850;0;2;"2020-02-10 08:31:16"
3352;135;""0"";6;5;21;98570;0;2;"2020-02-10 08:33:51"
3353;135;""0"";4;3;58;164180;0;2;"2020-02-10 09:11:00"
3354;135;""0"";7;5;49;1800000;2;2;"2020-02-10 09:35:21"
3355;135;""0"";8;5;4;76520;4;2;"2020-02-10 09:38:24"
3356;135;""0"";9;3;40;107440;2;2;"2020-02-10 09:41:13"
3357;135;""0"";10;5;1;122910;3;2;"2020-02-10 09:44:24"
3358;135;""0"";11;5;30;141570;4;2;"2020-02-10 09:48:06"
3359;135;""0"";12;3;51;51650;0;2;"2020-02-10 09:49:28"
3360;135;""0"";13;3;38;55490;2;1;"2020-02-10 09:51:44"
3361;135;""0"";14;5;2;98520;2;1;"2020-02-10 09:54:18"
3362;135;""0"";15;3;35;77310;0;2;"2020-02-10 09:56:19"
3363;135;""0"";16;3;33;209860;2;1;"2020-02-10 10:01:59"
3364;135;""0"";17;3;41;520520;0;2;"2020-02-10 10:20:01"
3365;135;""0"";18;5;53;189820;3;2;"2020-02-10 10:24:56"
3366;135;""0"";19;3;47;139820;2;2;"2020-02-10 10:28:35"
3367;135;""0"";20;5;24;53050;2;0;"2020-02-10 10:33:32"
3368;135;""0"";21;5;55;62300;0;2;"2020-02-10 10:35:10"
3369;137;""1"";1;5;10;203870;2;2;"2020-02-10 11:18:07"
3370;137;""1"";2;3;47;236820;0;2;"2020-02-10 11:22:36"
3371;137;""1"";3;3;18;28530;4;2;"2020-02-10 11:23:08"
3372;137;""1"";4;3;24;64920;2;2;"2020-02-10 11:24:17"
3373;112;""1"";50;3;35;65470;0;2;"2020-02-10 15:14:46"
3374;112;""1"";51;5;5;178220;0;2;"2020-02-10 15:17:45"
3375;131;""0"";21;5;12;190320;3;2;"2020-02-10 15:18:47"
3376;131;""0"";22;3;18;42810;4;2;"2020-02-10 15:19:33"
3377;99;""1"";29;3;54;63460;2;2;"2020-02-10 15:19:59"
3378;99;""1"";30;3;45;10370;2;1;"2020-02-10 15:20:12"
3379;112;""1"";52;3;25;227400;0;2;"2020-02-10 15:21:36"
3380;112;""1"";53;3;51;77960;0;2;"2020-02-10 15:22:57"
3381;131;""0"";23;3;59;239940;0;2;"2020-02-10 15:23:36"
3382;99;""1"";31;5;28;201930;3;2;"2020-02-10 15:23:40"
3383;99;""1"";32;3;58;130480;4;2;"2020-02-10 15:25:55"
3384;112;""1"";54;5;2;222810;3;2;"2020-02-10 15:26:41"
3385;99;""1"";33;3;60;208240;2;2;"2020-02-10 15:29:27"
3386;112;""1"";55;3;1;176510;0;2;"2020-02-10 15:29:39"
3387;112;""1"";56;5;20;187900;4;2;"2020-02-10 15:32:48"
3388;99;""1"";34;3;41;208360;2;2;"2020-02-10 15:33:00"
3389;99;""1"";35;5;20;24080;4;2;"2020-02-10 15:33:31"
3390;112;""1"";57;5;10;107450;2;2;"2020-02-10 15:34:37"
3391;99;""1"";36;5;44;266290;3;2;"2020-02-10 15:38:02"
3392;112;""1"";58;5;14;202820;1;2;"2020-02-10 15:38:02"
3393;99;""1"";37;5;50;53910;2;1;"2020-02-10 15:38:59"
3394;99;""1"";38;5;51;45920;0;2;"2020-02-10 15:39:48"
3395;99;""1"";39;5;18;41690;4;2;"2020-02-10 15:40:33"
3396;112;""1"";59;3;18;156390;4;2;"2020-02-10 15:40:40"
3397;99;""1"";40;3;8;147250;4;2;"2020-02-10 15:43:05"
3398;112;""1"";60;5;56;230260;3;2;"2020-02-10 15:44:32"
3399;99;""1"";41;3;9;190570;2;2;"2020-02-10 15:46:20"
3400;99;""1"";42;3;37;137090;0;2;"2020-02-10 15:48:41"
3401;99;""1"";43;5;4;182170;4;2;"2020-02-10 15:51:49"
3402;109;""0"";8;3;44;1241650;2;2;"2020-02-10 18:32:01"
3403;109;""0"";9;5;35;27600;0;2;"2020-02-10 18:32:31"
3404;109;""0"";10;5;33;158200;2;1;"2020-02-10 18:35:13"
3405;109;""0"";11;5;5;146830;0;2;"2020-02-10 18:37:42"
3406;109;""0"";12;3;26;535660;4;2;"2020-02-10 18:46:42"
3407;109;""0"";13;3;27;52430;2;0;"2020-02-10 18:47:36"
3408;109;""0"";14;3;58;180150;4;2;"2020-02-10 18:50:40"
3409;109;""0"";15;3;28;443740;4;2;"2020-02-10 18:58:08"
3410;109;""0"";16;3;15;197340;2;2;"2020-02-10 19:01:29"
3411;109;""0"";17;5;57;51070;0;2;"2020-02-10 19:02:22"
3412;109;""0"";18;3;25;69790;0;2;"2020-02-10 19:03:36"
3413;109;""0"";19;3;7;77440;2;0;"2020-02-10 19:04:55"
3414;109;""0"";20;3;23;326800;0;1;"2020-02-10 19:10:24"
3415;109;""0"";21;3;43;11740;0;2;"2020-02-10 19:10:38"
3416;109;""0"";22;3;8;273140;4;2;"2020-02-10 19:15:15"
3417;109;""0"";23;3;18;43500;4;2;"2020-02-10 19:16:01"
3418;109;""0"";24;3;47;694870;2;2;"2020-02-10 19:27:39"
3419;109;""0"";25;3;31;135300;2;2;"2020-02-10 19:35:59"
3420;109;""0"";26;3;22;102180;2;2;"2020-02-10 19:37:44"
3421;109;""0"";27;3;14;369450;0;2;"2020-02-10 19:43:56"
3422;109;""0"";28;3;19;82650;0;1;"2020-02-10 19:45:53"
3423;109;""0"";29;5;60;1631240;4;2;"2020-02-10 20:13:15"
3424;99;""1"";44;5;32;229250;4;2;"2020-02-11 07:55:26"
3425;99;""1"";45;3;23;99210;2;0;"2020-02-11 07:57:09"
3426;99;""1"";46;5;24;171470;3;1;"2020-02-11 08:00:05"
3427;99;""1"";47;5;25;187900;0;2;"2020-02-11 08:03:57"
3428;99;""1"";48;3;31;60600;2;2;"2020-02-11 08:08:42"
3429;99;""1"";49;3;57;145670;0;2;"2020-02-11 08:11:12"
3430;99;""1"";50;3;40;272570;2;2;"2020-02-11 08:19:51"
3431;99;""1"";51;3;7;12940;0;1;"2020-02-11 09:39:23"
3432;99;""1"";52;3;48;135200;2;2;"2020-02-11 09:41:43"
3433;99;""1"";53;5;43;12650;0;2;"2020-02-11 09:41:59"
3434;99;""1"";54;5;15;101770;2;2;"2020-02-11 10:02:54"
3435;99;""1"";55;5;26;110930;3;2;"2020-02-11 10:04:49"
3436;132;""1"";19;3;18;201230;4;2;"2020-02-11 12:14:25"
3437;132;""1"";20;3;23;286860;2;0;"2020-02-11 12:19:15"
3438;132;""1"";21;3;35;181340;0;2;"2020-02-11 12:22:23"
3439;132;""1"";22;3;47;550830;0;1;"2020-02-11 12:31:37"
3440;132;""1"";23;5;51;146530;0;2;"2020-02-11 12:34:06"
3441;132;""1"";24;3;46;141440;2;1;"2020-02-11 12:36:30"
3442;99;""1"";56;5;36;156930;4;2;"2020-02-12 09:28:02"
3443;99;""1"";57;5;38;18170;2;0;"2020-02-12 09:28:26"
3444;99;""1"";58;5;1;109280;1;2;"2020-02-12 09:30:21"
3445;99;""1"";59;3;2;125660;2;2;"2020-02-12 09:32:32"
3446;99;""1"";60;5;29;6070;0;2;"2020-02-12 09:32:41"
3447;109;""0"";30;5;36;360230;4;2;"2020-02-12 09:52:22"
3448;109;""0"";31;5;54;155050;4;2;"2020-02-12 09:55:03"
3449;109;""0"";32;5;41;316350;0;2;"2020-02-12 10:00:23"
3450;137;""1"";5;3;12;115440;2;2;"2020-02-12 13:28:14"
3451;137;""1"";6;3;8;85110;4;2;"2020-02-12 13:29:45"
3452;137;""1"";7;5;56;198460;2;0;"2020-02-12 13:33:07"
3453;137;""1"";8;3;37;45500;0;2;"2020-02-12 13:33:57"
3454;137;""1"";9;5;42;118930;4;2;"2020-02-12 13:35:59"
3455;137;""1"";10;3;14;284580;4;2;"2020-02-12 13:40:48"
3456;137;""1"";11;5;25;169380;1;2;"2020-02-12 13:43:41"
3457;137;""1"";12;5;32;27610;2;2;"2020-02-12 13:44:12"
3458;137;""1"";13;5;28;216890;4;2;"2020-02-12 13:47:54"
3459;137;""1"";14;5;2;51910;1;0;"2020-02-12 13:48:50"
3460;137;""1"";15;5;3;24280;2;0;"2020-02-12 13:49:17"
3461;137;""1"";16;3;55;34810;0;2;"2020-02-12 13:49:55"
3462;137;""1"";17;5;52;124950;4;2;"2020-02-12 13:52:04"
3463;137;""1"";18;3;16;22050;2;2;"2020-02-12 13:52:30"
3464;137;""1"";19;3;50;10060;2;0;"2020-02-12 13:52:42"
3465;137;""1"";20;5;23;50640;2;1;"2020-02-12 13:53:37"
3466;137;""1"";21;3;33;14590;2;0;"2020-02-12 13:54:01"
3467;137;""1"";22;3;9;79400;0;2;"2020-02-12 13:55:18"
3468;137;""1"";23;5;22;21800;2;0;"2020-02-12 13:55:43"
3469;137;""1"";24;5;34;109430;2;2;"2020-02-12 13:57:35"
3470;137;""1"";25;3;57;63110;0;2;"2020-02-12 13:58:44"
3471;109;""0"";33;3;1;216970;0;2;"2020-02-12 13:59:00"
3472;137;""1"";26;5;31;58640;0;2;"2020-02-12 13:59:47"
3473;109;""0"";34;5;59;65760;0;2;"2020-02-12 14:00:09"
3474;137;""1"";27;3;26;98700;2;2;"2020-02-12 14:01:29"
3475;137;""1"";28;5;53;63710;2;2;"2020-02-12 14:02:42"
3476;109;""0"";35;3;17;218580;0;2;"2020-02-12 14:03:51"
3477;109;""0"";36;5;42;210710;4;2;"2020-02-12 15:51:16"
3478;109;""0"";37;3;32;202000;4;2;"2020-02-12 15:54:42"
3479;109;""0"";38;3;10;347020;2;2;"2020-02-12 16:00:34"
3480;109;""0"";39;3;2;472700;2;2;"2020-02-12 16:08:31"
3481;109;""0"";40;5;13;68260;0;1;"2020-02-12 16:09:46"
3482;130;""1"";25;3;20;54400;4;2;"2020-02-12 16:16:02"
3483;130;""1"";26;5;31;52290;2;2;"2020-02-12 16:17:01"
3484;130;""1"";27;5;9;158520;1;2;"2020-02-12 16:19:44"
3485;130;""1"";28;3;7;53340;2;0;"2020-02-12 16:21:33"
3486;130;""1"";29;3;12;183550;2;2;"2020-02-12 16:25:14"
3487;130;""1"";30;5;10;149500;2;2;"2020-02-12 16:28:16"
3488;109;""0"";41;5;29;15840;0;2;"2020-02-12 21:39:27"
3489;109;""0"";42;5;21;89180;0;2;"2020-02-12 21:41:00"
3490;109;""0"";43;5;9;90850;0;2;"2020-02-12 21:42:33"
3491;109;""0"";44;3;49;144470;0;2;"2020-02-12 21:45:01"
3492;109;""0"";45;5;51;47650;0;2;"2020-02-12 21:45:51"
3493;109;""0"";46;5;38;152310;1;0;"2020-02-12 21:48:27"
3494;109;""0"";47;3;37;201950;0;2;"2020-02-12 21:51:52"
3495;132;""1"";25;5;6;245300;2;0;"2020-02-13 10:03:00"
3496;132;""1"";26;5;9;425520;1;2;"2020-02-13 10:10:08"
3497;132;""1"";27;5;11;294040;1;1;"2020-02-13 10:15:07"
3498;132;""1"";28;3;25;242970;2;2;"2020-02-13 10:19:13"
3499;132;""1"";29;3;28;620600;4;1;"2020-02-13 10:29:36"
3500;132;""1"";30;5;13;57840;1;0;"2020-02-13 10:37:41"
3501;132;""1"";31;5;58;329760;4;2;"2020-02-13 10:43:15"
3502;132;""1"";32;5;54;291020;4;1;"2020-02-13 10:48:09"
3503;132;""1"";33;5;41;309750;2;1;"2020-02-13 10:55:35"
3504;132;""1"";34;5;15;1354720;2;1;"2020-02-13 11:18:13"
3505;113;""1"";1;5;1;91270;2;2;"2020-02-14 02:01:50"
3506;113;""1"";2;3;22;102840;2;0;"2020-02-14 02:03:36"
3507;113;""1"";3;3;35;34300;0;2;"2020-02-14 02:04:12"
3508;113;""1"";4;3;45;104570;2;1;"2020-02-14 02:06:00"
3509;113;""1"";5;3;25;152700;2;2;"2020-02-14 02:08:37"
3510;113;""1"";6;5;42;177810;4;2;"2020-02-14 02:11:39"
3511;113;""1"";7;5;30;187590;4;2;"2020-02-14 02:14:51"
3512;113;""1"";8;5;36;49510;4;2;"2020-02-14 02:15:43"
3513;113;""1"";9;5;27;50780;2;0;"2020-02-14 02:16:37"
3514;113;""1"";10;5;28;181120;4;2;"2020-02-14 02:19:42"
3515;113;""1"";11;5;15;132950;2;2;"2020-02-14 02:22:00"
3516;113;""1"";12;5;17;187060;3;1;"2020-02-14 02:25:10"
3517;113;""1"";13;5;39;51810;2;0;"2020-02-14 02:26:04"
3518;113;""1"";14;5;12;200400;2;2;"2020-02-14 02:29:27"
3519;113;""1"";15;3;34;241430;4;2;"2020-02-14 02:33:31"
3520;113;""1"";16;5;8;75870;4;2;"2020-02-14 02:34:49"
3521;113;""1"";17;3;37;88060;0;1;"2020-02-14 02:36:21"
3522;113;""1"";18;3;23;177440;2;1;"2020-02-14 02:39:21"
3523;113;""1"";19;5;21;56030;2;2;"2020-02-14 02:40:19"
3524;113;""1"";20;5;53;405270;0;2;"2020-02-14 04:09:00"
3525;113;""1"";21;5;11;135860;0;2;"2020-02-14 04:11:22"
3526;113;""1"";22;5;59;214520;0;2;"2020-02-14 04:14:59"
3527;113;""1"";23;5;47;439000;1;2;"2020-02-14 04:22:21"
3528;113;""1"";24;3;58;75290;4;2;"2020-02-14 04:23:41"
3529;113;""1"";25;5;46;502900;3;2;"2020-02-14 04:32:07"
3530;113;""1"";26;5;33;91830;2;1;"2020-02-14 04:33:43"
3531;113;""1"";27;3;55;111410;0;2;"2020-02-14 04:36:06"
3532;113;""1"";28;3;18;13840;4;2;"2020-02-14 04:36:22"
3533;113;""1"";29;3;7;12460;2;0;"2020-02-14 04:36:37"
3534;113;""1"";30;3;19;15880;0;1;"2020-02-14 04:36:55"
3535;113;""1"";31;5;38;111670;2;2;"2020-02-14 04:38:50"
3536;113;""1"";32;3;20;22080;4;2;"2020-02-14 04:39:14"
3537;113;""1"";33;5;26;59840;3;2;"2020-02-14 04:40:17"
3538;113;""1"";34;3;32;194220;2;2;"2020-02-14 04:43:34"
3539;113;""1"";35;3;41;21630;2;2;"2020-02-14 04:43:58"
3540;113;""1"";36;3;24;25790;2;0;"2020-02-14 04:44:26"
3541;113;""1"";37;3;13;21270;2;0;"2020-02-14 04:44:50"
3542;113;""1"";38;5;51;47060;0;2;"2020-02-14 04:45:39"
3543;113;""1"";39;5;49;103680;2;2;"2020-02-14 04:47:25"
3544;113;""1"";40;3;6;86830;2;2;"2020-02-14 04:48:54"
3545;131;""0"";24;3;14;417200;4;2;"2020-02-14 08:43:40"
3546;131;""0"";25;5;51;40040;0;2;"2020-02-14 08:44:23"
3547;131;""0"";26;3;53;140420;0;1;"2020-02-14 08:46:46"
3548;131;""0"";27;3;5;330340;0;2;"2020-02-14 08:52:18"
3549;131;""0"";28;5;56;576720;3;2;"2020-02-14 09:01:57"
3550;131;""0"";29;5;44;511500;3;2;"2020-02-14 09:10:33"
3551;131;""0"";30;3;4;303400;4;2;"2020-02-14 09:25:38"
3552;131;""0"";31;3;25;250000;0;2;"2020-02-14 09:29:51"
3553;132;""1"";35;5;55;197180;1;2;"2020-02-14 16:09:29"
3554;132;""1"";36;5;20;175780;4;2;"2020-02-14 16:12:27"
3555;132;""1"";37;3;56;166030;2;1;"2020-02-14 16:15:15"
3556;132;""1"";38;3;2;127820;2;0;"2020-02-14 16:17:26"
3557;132;""1"";39;3;7;153250;2;0;"2020-02-14 16:20:02"
3558;132;""1"";40;5;4;360770;3;2;"2020-02-14 16:26:05"
3559;132;""1"";41;5;57;229940;1;2;"2020-02-14 16:29:58"
3560;132;""1"";42;5;50;60960;2;0;"2020-02-14 16:31:02"
3561;132;""1"";43;5;22;38920;2;0;"2020-02-14 16:31:43"
3562;132;""1"";44;3;30;171230;2;1;"2020-02-14 16:34:36"
3563;132;""1"";45;5;29;8730;0;2;"2020-02-14 16:34:47"
3564;132;""1"";46;5;37;190160;1;0;"2020-02-14 16:38:00"
3565;132;""1"";47;3;52;385260;2;1;"2020-02-14 16:44:28"
3566;132;""1"";48;3;48;117400;2;1;"2020-02-14 16:46:27"
3567;132;""1"";49;3;40;140540;2;2;"2020-02-14 16:48:50"
3568;132;""1"";50;5;10;144960;2;0;"2020-02-14 16:51:18"
3569;132;""1"";51;5;33;83390;2;0;"2020-02-14 16:52:43"
3570;132;""1"";52;3;19;151850;2;0;"2020-02-14 16:55:18"
3571;132;""1"";53;3;36;594390;4;2;"2020-02-14 17:05:17"
3572;132;""1"";54;3;14;233060;0;1;"2020-02-14 17:09:13"
3573;132;""1"";55;3;1;272190;0;2;"2020-02-14 17:13:47"
3574;132;""1"";56;3;34;63050;2;2;"2020-02-14 17:14:53"
3575;132;""1"";57;5;24;219020;2;0;"2020-02-14 17:18:34"
3576;132;""1"";58;3;31;177480;2;1;"2020-02-14 17:32:31"
3577;132;""1"";59;3;21;168930;2;2;"2020-02-14 17:35:25"
3578;132;""1"";60;5;12;288910;2;1;"2020-02-14 17:40:17"
3579;109;""0"";48;5;45;439110;0;1;"2020-02-15 09:58:45"
3580;109;""0"";49;5;30;170890;4;2;"2020-02-15 10:01:46"
3581;109;""0"";50;3;56;365890;0;2;"2020-02-15 10:07:58"
3582;109;""0"";51;5;11;44910;0;2;"2020-02-15 10:08:49"
3583;109;""0"";52;5;20;12920;4;2;"2020-02-15 10:09:05"
3584;109;""0"";53;5;12;105510;2;2;"2020-02-15 10:10:53"
3585;109;""0"";54;5;4;132740;4;2;"2020-02-15 10:13:11"
3586;109;""0"";55;5;50;44450;2;1;"2020-02-15 10:13:59"
3587;109;""0"";56;5;40;116350;0;2;"2020-02-15 10:15:59"
3588;109;""0"";57;5;46;507880;4;2;"2020-02-15 10:24:31"
3589;109;""0"";58;3;34;536270;4;2;"2020-02-15 10:33:32"
3590;109;""0"";59;5;3;76460;0;2;"2020-02-15 10:34:51"
3591;109;""0"";60;3;16;489820;4;2;"2020-02-15 10:43:06"
3592;130;""1"";31;5;27;95200;2;0;"2020-02-15 16:39:48"
3593;130;""1"";32;5;48;82650;3;2;"2020-02-15 16:41:29"
3594;130;""1"";33;3;58;127430;4;2;"2020-02-15 16:44:01"
3595;130;""1"";34;5;59;114220;3;2;"2020-02-15 16:46:19"
3596;130;""1"";35;3;35;77260;0;2;"2020-02-15 16:48:26"
3597;130;""1"";36;3;22;64200;2;0;"2020-02-15 16:49:40"
3598;130;""1"";37;3;56;111990;2;0;"2020-02-15 16:51:51"
3599;130;""1"";38;3;47;279440;2;2;"2020-02-15 16:57:07"
3600;130;""1"";39;5;34;185320;2;2;"2020-02-15 17:00:41"
3601;130;""1"";40;3;54;62780;4;2;"2020-02-15 17:01:57"
3602;130;""1"";41;5;24;88390;3;0;"2020-02-15 17:05:35"
3603;130;""1"";42;3;18;34430;4;2;"2020-02-15 17:06:21"
3604;130;""1"";43;5;14;124410;3;2;"2020-02-15 17:08:46"
3605;130;""1"";44;5;15;147380;2;2;"2020-02-15 17:11:35"
3606;130;""1"";45;5;53;93270;1;2;"2020-02-15 17:13:28"
3607;130;""1"";46;3;32;106040;2;2;"2020-02-15 17:15:44"
3608;130;""1"";47;5;57;72960;0;2;"2020-02-15 17:17:10"
3609;130;""1"";48;5;44;53380;3;0;"2020-02-15 17:18:16"
3610;130;""1"";49;3;17;45960;2;0;"2020-02-15 17:19:10"
3611;130;""1"";50;3;5;81900;2;2;"2020-02-15 17:20:46"
3612;130;""1"";51;5;51;53190;0;2;"2020-02-15 17:24:33"
3613;130;""1"";52;3;25;80670;0;2;"2020-02-15 17:26:07"
3614;130;""1"";53;3;33;26070;2;0;"2020-02-15 17:26:39"
3615;130;""1"";54;5;28;40490;3;0;"2020-02-15 17:27:28"
3616;130;""1"";55;5;43;22860;0;2;"2020-02-15 17:27:57"
3617;130;""1"";56;5;37;134000;2;2;"2020-02-15 17:32:10"
3618;130;""1"";57;3;55;32000;0;2;"2020-02-15 17:32:49"
3619;130;""1"";58;3;29;14230;0;2;"2020-02-15 17:33:09"
3620;130;""1"";59;3;19;47130;2;0;"2020-02-15 17:34:05"
3621;130;""1"";60;5;23;76790;3;0;"2020-02-15 17:35:35"
3622;114;""0"";17;5;44;546420;4;2;"2020-02-15 22:17:51"
3623;114;""0"";18;5;59;157870;0;2;"2020-02-15 22:20:51"
3624;114;""0"";19;5;43;5590;0;2;"2020-02-15 22:20:59"
3625;114;""0"";20;5;35;9370;0;2;"2020-02-15 22:21:11"
3626;114;""0"";21;3;55;36900;0;2;"2020-02-15 22:21:55"
3627;114;""0"";22;5;24;366280;2;1;"2020-02-15 22:28:42"
3628;114;""0"";23;3;46;59980;4;2;"2020-02-15 22:29:50"
3629;114;""0"";24;5;1;192360;0;2;"2020-02-15 22:33:25"
3630;114;""0"";25;3;32;62530;4;2;"2020-02-15 22:34:34"
3631;114;""0"";26;3;17;320360;0;1;"2020-02-15 23:38:05"
3632;114;""0"";27;5;51;5660;0;2;"2020-02-15 23:38:13"
3633;114;""0"";28;5;60;203030;3;1;"2020-02-15 23:42:02"
3634;125;""0"";1;5;3;91910;0;2;"2020-02-18 07:03:07"
3635;125;""0"";2;5;11;174820;0;2;"2020-02-18 07:06:17"
3636;125;""0"";3;3;21;148950;0;2;"2020-02-18 07:08:54"
3637;125;""0"";4;3;28;515990;4;2;"2020-02-18 07:17:44"
3638;125;""0"";5;5;47;550700;0;2;"2020-02-18 07:27:29"
3639;125;""0"";6;5;18;107450;4;2;"2020-02-18 07:29:24"
3640;125;""0"";7;5;16;511580;4;2;"2020-02-18 07:38:12"
3641;125;""0"";8;3;49;703340;0;2;"2020-02-18 07:50:20"
3642;125;""0"";9;5;33;976900;1;1;"2020-02-18 08:07:07"
3643;131;""0"";32;5;17;138400;0;2;"2020-02-18 08:11:07"
3644;131;""0"";33;5;58;208010;4;2;"2020-02-18 08:14:38"
3645;131;""0"";34;5;52;255700;3;1;"2020-02-18 08:19:08"
3646;131;""0"";35;5;23;442850;1;2;"2020-02-18 10:21:13"
3647;131;""0"";36;5;29;6040;0;2;"2020-02-18 10:21:23"
3648;131;""0"";37;3;37;134260;0;2;"2020-02-18 10:23:41"
3649;131;""0"";38;3;21;128560;2;2;"2020-02-18 10:26:10"
3650;131;""0"";39;5;11;176420;0;2;"2020-02-18 10:29:10"
3651;131;""0"";40;3;55;146720;0;2;"2020-02-18 10:31:47"
3652;131;""0"";41;5;6;187280;3;1;"2020-02-18 10:34:57"
3653;131;""0"";42;5;16;269090;4;2;"2020-02-18 10:46:26"
3654;131;""0"";43;3;10;188010;2;2;"2020-02-18 10:49:36"
3655;113;""1"";41;5;5;310240;1;2;"2020-02-19 06:12:52"
3656;113;""1"";42;5;52;156390;3;2;"2020-02-19 06:15:31"
3657;113;""1"";43;5;40;180690;3;2;"2020-02-19 06:18:34"
3658;113;""1"";44;5;44;136070;3;1;"2020-02-19 06:20:53"
3659;113;""1"";45;5;10;56520;2;2;"2020-02-19 06:22:04"
3660;113;""1"";45;5;10;56520;2;2;"2020-02-19 06:22:04"
3661;113;""1"";46;3;16;144300;4;1;"2020-02-19 06:24:29"
3662;113;""1"";47;3;3;36910;2;1;"2020-02-19 06:25:08"
3663;113;""1"";48;5;4;82980;4;2;"2020-02-19 06:26:34"
3664;113;""1"";49;5;9;168320;2;2;"2020-02-19 06:29:24"
3665;113;""1"";50;3;14;152930;4;2;"2020-02-19 06:31:59"
3666;113;""1"";51;3;50;11430;2;0;"2020-02-19 06:32:12"
3667;113;""1"";52;3;48;28440;2;1;"2020-02-19 06:32:43"
3668;113;""1"";53;5;2;71810;2;0;"2020-02-19 06:33:56"
3669;113;""1"";54;3;57;95980;0;2;"2020-02-19 06:35:35"
3670;113;""1"";55;3;43;13080;0;2;"2020-02-19 06:35:50"
3671;113;""1"";56;3;54;122110;4;2;"2020-02-19 06:37:55"
3672;113;""1"";57;3;29;7420;0;2;"2020-02-19 06:38:04"
3673;113;""1"";58;3;31;30230;2;1;"2020-02-19 06:38:36"
3674;113;""1"";59;3;56;127240;2;2;"2020-02-19 06:40:45"
3675;113;""1"";60;3;60;121950;4;2;"2020-02-19 06:42:50"
3676;131;""0"";44;5;46;202820;3;2;"2020-02-19 08:43:10"
3677;131;""0"";45;3;39;35550;2;0;"2020-02-19 08:43:48"
3678;131;""0"";46;5;3;81840;0;2;"2020-02-19 08:45:13"
3679;131;""0"";47;3;42;277170;4;2;"2020-02-19 11:59:56"
3680;131;""0"";48;5;40;141000;3;2;"2020-02-19 12:19:05"
3681;131;""0"";49;3;49;129400;0;2;"2020-02-19 12:21:17"
3682;131;""0"";50;3;32;268850;4;0;"2020-02-19 12:28:09"
3683;131;""0"";51;5;41;135560;0;2;"2020-02-19 12:30:30"
3684;131;""0"";52;5;47;302050;1;2;"2020-02-19 12:37:17"
3685;131;""0"";53;3;34;148480;2;2;"2020-02-19 12:43:14"
3686;131;""0"";54;5;35;123060;0;2;"2020-02-19 12:45:22"
3687;131;""0"";55;3;7;75340;2;0;"2020-02-19 13:04:55"
3688;131;""0"";56;5;38;132160;2;0;"2020-02-19 13:07:09"
3689;131;""0"";57;3;60;223100;2;1;"2020-02-19 13:11:04"
3690;131;""0"";58;3;2;97830;2;1;"2020-02-19 13:12:44"
3691;131;""0"";59;3;28;162210;4;2;"2020-02-19 13:15:31"
3692;131;""0"";60;5;31;93370;0;1;"2020-02-19 13:17:08"
3693;125;""0"";10;3;38;553990;2;2;"2020-02-20 07:29:37"
3694;125;""0"";11;5;6;204860;2;2;"2020-02-20 07:33:09"
3695;125;""0"";12;3;32;242880;2;0;"2020-02-20 07:37:28"
3696;125;""0"";13;3;25;752090;0;2;"2020-02-20 07:50:18"
3697;125;""0"";14;3;52;624080;2;2;"2020-02-20 08:01:03"
3698;125;""0"";15;3;20;249710;4;2;"2020-02-20 08:05:23"
3699;125;""0"";16;5;34;638350;2;2;"2020-02-20 08:16:18"
3700;125;""0"";17;3;54;841450;4;2;"2020-02-21 07:28:58"
3701;125;""0"";18;5;5;350580;0;2;"2020-02-21 07:35:03"
3702;125;""0"";19;5;41;463500;0;2;"2020-02-21 07:43:05"
3703;125;""0"";20;5;57;331030;0;2;"2020-02-21 07:49:01"
3704;125;""0"";21;3;10;397010;2;1;"2020-02-21 07:55:57"
3705;125;""0"";22;5;35;152880;0;2;"2020-02-21 07:58:42"
3706;125;""0"";23;5;26;457160;2;2;"2020-02-21 08:06:37"
3707;125;""0"";24;3;53;437420;0;1;"2020-02-21 08:14:30"
3708;125;""0"";25;5;43;170810;0;2;"2020-02-24 07:07:48"
3709;125;""0"";26;3;24;85730;2;0;"2020-02-24 07:09:24"
3710;125;""0"";27;5;8;495860;4;2;"2020-02-24 07:17:58"
3711;125;""0"";28;5;59;735990;0;2;"2020-02-24 07:30:45"
3712;125;""0"";29;3;17;262600;0;2;"2020-02-24 07:35:20"
3713;125;""0"";30;3;4;401340;4;2;"2020-02-24 07:42:15"
3714;125;""0"";31;3;37;28560;2;0;"2020-02-24 07:42:51"
3715;125;""0"";32;5;31;252040;0;2;"2020-02-24 07:47:14"
3716;125;""0"";33;3;51;75160;0;2;"2020-02-24 07:48:35"
3717;125;""0"";34;5;56;595270;2;1;"2020-02-24 07:58:58"
3718;142;""0"";1;5;38;441250;2;2;"2020-02-24 09:26:17"
3719;142;""0"";2;5;10;390760;2;2;"2020-02-24 09:33:01"
3720;142;""0"";3;5;4;383930;3;2;"2020-02-24 09:39:55"
3721;142;""0"";4;3;41;219390;2;2;"2020-02-24 09:46:18"
3722;142;""0"";5;3;36;604800;4;2;"2020-02-24 09:58:51"
3723;142;""0"";6;3;26;232370;2;2;"2020-02-24 10:02:48"
3724;142;""0"";7;5;44;157700;2;1;"2020-02-24 10:44:56"
3725;142;""0"";8;3;7;24080;2;0;"2020-02-24 10:45:22"
3726;100;""0"";1;5;60;507640;4;2;"2020-02-24 10:54:45"
3727;144;""0"";1;3;21;618550;0;2;"2020-02-24 11:02:29"
3728;142;""0"";9;3;14;1092290;2;2;"2020-02-24 11:04:12"
3729;142;""0"";10;3;31;109560;2;2;"2020-02-24 11:06:04"
3730;142;""0"";11;5;23;18700;2;0;"2020-02-24 11:06:24"
3731;144;""0"";2;3;53;245120;0;2;"2020-02-24 11:06:41"
3732;144;""0"";3;5;22;107610;2;2;"2020-02-24 11:08:31"
3733;142;""0"";12;3;57;165570;0;2;"2020-02-24 11:09:14"
3734;100;""0"";2;5;53;604150;0;2;"2020-02-24 11:10:14"
3735;100;""0"";3;3;57;86920;0;2;"2020-02-24 11:11:43"
3736;100;""0"";4;3;54;312760;4;2;"2020-02-24 11:16:59"
3737;144;""0"";4;3;36;252730;4;2;"2020-02-24 11:18:33"
3738;144;""0"";5;5;25;214050;0;2;"2020-02-24 11:22:09"
3739;144;""0"";6;5;56;380920;2;2;"2020-02-24 11:30:02"
3740;100;""0"";5;5;15;630390;2;2;"2020-02-24 11:30:55"
3741;144;""0"";7;3;30;183310;4;2;"2020-02-24 11:33:08"
3742;144;""0"";8;5;29;99950;0;2;"2020-02-24 11:34:51"
3743;100;""0"";6;3;24;245660;2;1;"2020-02-24 11:35:04"
3744;144;""0"";9;5;11;152200;0;2;"2020-02-24 11:37:27"
3745;144;""0"";10;5;48;157900;3;2;"2020-02-24 11:40:08"
3746;100;""0"";7;3;9;608320;0;2;"2020-02-24 11:45:15"
3747;142;""0"";13;5;8;1800000;4;2;"2020-02-24 11:48:11"
3748;144;""0"";11;3;23;462410;2;2;"2020-02-24 11:48:51"
3749;140;""0"";1;5;6;312090;3;2;"2020-02-24 11:49:49"
3750;140;""0"";2;3;18;75580;4;2;"2020-02-24 11:51:15"
3751;140;""0"";3;3;50;54660;2;0;"2020-02-24 11:52:14"
3752;100;""0"";8;5;56;423880;3;2;"2020-02-24 11:52:22"
3753;144;""0"";12;5;44;259350;3;2;"2020-02-24 11:53:33"
3754;140;""0"";4;5;19;72760;1;1;"2020-02-24 11:53:39"
3755;140;""0"";5;5;31;92090;2;2;"2020-02-24 11:55:15"
3756;144;""0"";13;5;24;128750;2;0;"2020-02-24 11:55:43"
3757;140;""0"";6;5;17;152110;0;2;"2020-02-24 11:57:52"
3758;100;""0"";9;3;16;342680;4;2;"2020-02-24 11:58:08"
3759;144;""0"";14;5;34;161530;4;2;"2020-02-24 11:58:26"
3760;144;""0"";15;5;27;99430;2;0;"2020-02-24 12:00:08"
3761;140;""0"";7;5;11;77970;0;2;"2020-02-24 12:02:03"
3762;140;""0"";8;3;57;166200;0;2;"2020-02-24 12:04:53"
3763;144;""0"";16;5;1;316070;0;2;"2020-02-24 12:05:26"
3764;140;""0"";9;3;33;40350;2;1;"2020-02-24 12:05:37"
3765;140;""0"";10;3;43;38980;0;2;"2020-02-24 12:06:20"
3766;144;""0"";17;5;51;79860;0;2;"2020-02-24 12:06:50"
3767;140;""0"";11;5;4;180280;4;2;"2020-02-24 12:09:23"
3768;144;""0"";18;5;2;227490;3;2;"2020-02-24 12:10:44"
3769;100;""0"";10;5;33;491380;1;2;"2020-02-24 12:17:27"
3770;140;""0"";12;3;28;535370;4;2;"2020-02-24 12:18:20"
3771;142;""0"";14;3;34;1779650;2;2;"2020-02-24 12:18:43"
3772;144;""0"";19;5;57;145160;0;2;"2020-02-24 12:21:33"
3773;142;""0"";15;3;55;216900;0;2;"2020-02-24 12:23:07"
3774;140;""0"";13;3;46;180590;2;2;"2020-02-24 12:23:30"
3775;140;""0"";14;3;54;179380;4;2;"2020-02-24 12:26:48"
3776;140;""0"";15;5;27;40720;2;0;"2020-02-24 12:27:32"
3777;144;""0"";20;5;49;285200;1;2;"2020-02-24 12:28:13"
3778;140;""0"";16;3;23;99190;2;1;"2020-02-24 12:29:15"
3779;140;""0"";17;3;1;129660;2;2;"2020-02-24 12:31:29"
3780;140;""0"";18;5;49;112150;2;2;"2020-02-24 12:33:25"
3781;140;""0"";19;3;45;38840;2;1;"2020-02-24 12:34:08"
3782;140;""0"";20;5;14;174280;0;2;"2020-02-24 12:37:06"
3783;144;""0"";21;3;50;238080;2;0;"2020-02-24 12:38:51"
3784;144;""0"";22;3;6;132650;2;2;"2020-02-24 12:41:12"
3785;100;""0"";11;3;47;1751550;2;2;"2020-02-24 12:46:58"
3786;142;""0"";16;3;33;90920;2;0;"2020-02-24 12:49:31"
3787;142;""0"";17;5;19;63820;2;1;"2020-02-24 12:50:36"
3788;142;""0"";18;3;35;53600;0;2;"2020-02-24 12:51:31"
3789;100;""0"";12;5;3;195410;1;2;"2020-02-24 12:57:19"
3790;100;""0"";13;5;37;474620;1;2;"2020-02-24 13:05:16"
3791;100;""0"";14;3;29;9720;0;2;"2020-02-24 13:05:28"
3792;100;""0"";15;3;11;157650;0;2;"2020-02-24 13:08:09"
3793;143;""1"";1;3;22;37900;2;0;"2020-02-24 13:08:43"
3794;143;""1"";2;3;21;108620;2;2;"2020-02-24 13:10:37"
3795;100;""0"";16;5;22;178690;2;2;"2020-02-24 13:11:10"
3796;100;""0"";17;5;40;447730;1;2;"2020-02-24 13:18:40"
3797;140;""0"";21;3;34;365250;4;2;"2020-02-24 13:29:31"
3798;100;""0"";18;3;13;109980;0;1;"2020-02-24 13:31:19"
3799;143;""1"";3;3;51;13060;0;2;"2020-02-24 13:32:55"
3800;143;""1"";4;3;36;24890;4;2;"2020-02-24 13:33:23"
3801;143;""1"";5;3;57;24880;0;2;"2020-02-24 13:33:50"
3802;140;""0"";22;3;60;292340;4;1;"2020-02-24 13:34:28"
3803;143;""1"";6;5;39;49620;1;0;"2020-02-24 13:34:42"
3804;143;""1"";7;3;30;83170;4;2;"2020-02-24 13:36:10"
3805;143;""1"";8;3;6;24420;2;2;"2020-02-24 13:36:39"
3806;100;""0"";19;5;28;327450;4;2;"2020-02-24 13:36:50"
3807;140;""0"";23;5;55;149100;0;2;"2020-02-24 13:38:31"
3808;143;""1"";9;5;52;135560;4;2;"2020-02-24 13:38:57"
3809;143;""1"";10;5;43;8220;0;2;"2020-02-24 13:39:10"
3810;143;""1"";11;3;25;73520;0;2;"2020-02-24 13:40:25"
3811;100;""0"";20;5;48;290380;3;2;"2020-02-24 13:41:44"
3812;143;""1"";12;5;3;92270;1;0;"2020-02-24 13:42:11"
3813;143;""1"";13;5;13;79730;1;0;"2020-02-24 13:43:33"
3814;100;""0"";21;5;31;134020;0;2;"2020-02-24 13:44:01"
3815;143;""1"";14;3;16;39100;4;2;"2020-02-24 13:44:16"
3816;143;""1"";15;3;53;51860;0;2;"2020-02-24 13:45:10"
3817;143;""1"";16;5;7;23470;2;0;"2020-02-24 13:45:36"
3818;143;""1"";17;5;12;97600;1;2;"2020-02-24 13:47:16"
3819;100;""0"";22;5;1;302490;0;2;"2020-02-24 13:49:07"
3820;143;""1"";18;5;46;191890;3;2;"2020-02-24 13:50:31"
3821;140;""0"";24;5;35;82430;0;2;"2020-02-24 13:50:54"
3822;140;""0"";25;3;15;109070;2;2;"2020-02-24 13:52:51"
3823;140;""0"";26;5;56;171520;2;0;"2020-02-24 13:55:48"
3824;140;""0"";27;3;9;153320;2;2;"2020-02-24 13:58:26"
3825;140;""0"";28;3;40;122560;0;2;"2020-02-24 14:00:34"
3826;143;""1"";19;5;34;141770;4;2;"2020-02-24 14:00:54"
3827;143;""1"";20;3;15;75350;2;2;"2020-02-24 14:02:13"
3828;140;""0"";29;5;30;433810;4;2;"2020-02-24 14:07:54"
3829;140;""0"";30;3;58;218700;4;2;"2020-02-24 14:11:39"
3830;100;""0"";23;3;14;286130;4;2;"2020-02-24 14:12:26"
3831;140;""0"";31;3;13;49730;2;0;"2020-02-24 14:12:33"
3832;140;""0"";32;3;24;71130;2;0;"2020-02-24 14:13:48"
3833;100;""0"";24;5;17;210340;1;2;"2020-02-24 14:16:07"
3834;140;""0"";33;5;32;194350;3;0;"2020-02-24 14:18:37"
3835;140;""0"";34;3;20;84210;4;2;"2020-02-24 14:20:07"
3836;140;""0"";35;5;37;42000;1;1;"2020-02-24 14:20:53"
3837;140;""0"";36;5;21;74180;2;2;"2020-02-24 14:22:11"
3838;100;""0"";25;5;4;454240;4;2;"2020-02-24 14:24:02"
3839;140;""0"";37;5;26;107640;2;2;"2020-02-24 14:24:03"
3840;100;""0"";26;5;23;250950;0;2;"2020-02-24 14:28:15"
3841;100;""0"";27;5;49;171980;0;2;"2020-02-24 14:31:10"
3842;100;""0"";28;5;50;215710;3;1;"2020-02-24 14:35:15"
3843;100;""0"";29;3;42;424800;4;2;"2020-02-24 14:42:27"
3844;100;""0"";30;3;41;128920;2;2;"2020-02-24 14:44:45"
3845;100;""0"";31;5;34;258480;4;2;"2020-02-24 14:49:28"
3846;100;""0"";32;3;18;72900;4;2;"2020-02-24 14:50:43"
3847;100;""0"";33;5;44;193000;3;2;"2020-02-24 14:53:59"
3848;100;""0"";34;5;39;151180;2;1;"2020-02-24 14:56:33"
3849;100;""0"";35;3;45;262000;0;2;"2020-02-24 15:00:59"
3850;100;""0"";36;3;32;306490;2;0;"2020-02-24 15:07:25"
3851;100;""0"";37;5;8;145070;4;2;"2020-02-24 15:10:22"
3852;100;""0"";38;5;5;160760;1;2;"2020-02-24 15:13:06"
3853;100;""0"";39;5;2;118870;2;1;"2020-02-24 15:15:09"
3854;100;""0"";40;3;19;49660;0;1;"2020-02-24 15:16:02"
3855;140;""0"";38;3;25;163560;2;2;"2020-02-24 15:28:04"
3856;100;""0"";41;3;27;181840;2;0;"2020-02-24 15:34:30"
3857;100;""0"";42;3;58;190610;4;2;"2020-02-24 15:37:46"
3858;140;""0"";39;5;7;27230;2;0;"2020-02-24 15:37:50"
3859;140;""0"";40;3;47;206050;2;2;"2020-02-24 15:41:26"
3860;100;""0"";43;3;38;295500;0;1;"2020-02-24 15:42:45"
3861;140;""0"";41;5;5;240100;0;2;"2020-02-24 15:45:32"
3862;100;""0"";44;3;10;355210;2;2;"2020-02-24 15:48:45"
3863;100;""0"";45;3;43;37690;0;2;"2020-02-24 15:49:25"
3864;100;""0"";46;5;7;20260;2;0;"2020-02-24 15:49:47"
3865;100;""0"";47;5;25;77690;1;2;"2020-02-24 15:51:07"
3866;100;""0"";48;5;51;39710;0;2;"2020-02-24 15:51:49"
3867;100;""0"";49;5;46;177900;3;2;"2020-02-24 15:54:50"
3868;100;""0"";50;5;52;270460;3;1;"2020-02-24 15:59:24"
3869;100;""0"";51;3;6;82510;2;1;"2020-02-24 16:00:49"
3870;100;""0"";52;3;36;227790;4;2;"2020-02-24 16:04:41"
3871;100;""0"";53;3;35;15170;0;2;"2020-02-24 16:05:26"
3872;100;""0"";54;3;59;156470;0;2;"2020-02-24 16:08:04"
3873;100;""0"";55;3;26;126300;2;1;"2020-02-24 16:11:04"
3874;100;""0"";56;3;21;121940;2;2;"2020-02-24 16:13:09"
3875;100;""0"";57;5;30;158750;4;2;"2020-02-24 16:15:51"
3876;100;""0"";58;3;55;24640;0;2;"2020-02-24 16:16:17"
3877;100;""0"";59;3;20;36750;4;2;"2020-02-24 16:16:56"
3878;100;""0"";60;3;12;355500;0;2;"2020-02-24 16:22:56"
3879;144;""0"";23;3;5;630250;0;2;"2020-02-24 16:33:17"
3880;144;""0"";24;5;60;385870;4;2;"2020-02-24 16:39:45"
3881;144;""0"";25;3;59;239200;0;2;"2020-02-24 16:43:46"
3882;144;""0"";26;3;7;56580;2;0;"2020-02-24 16:44:45"
3883;144;""0"";27;5;47;632360;1;2;"2020-02-24 16:55:25"
3884;125;""0"";35;3;46;328290;0;1;"2020-02-25 07:20:38"
3885;125;""0"";36;5;36;596780;4;2;"2020-02-25 07:31:14"
3886;125;""0"";37;3;23;84080;2;0;"2020-02-25 07:32:43"
3887;134;""1"";1;5;43;38830;0;2;"2020-02-25 07:35:22"
3888;125;""0"";38;5;48;368260;1;2;"2020-02-25 07:39:05"
3889;134;""1"";2;5;10;333730;2;2;"2020-02-25 07:41:15"
3890;125;""0"";39;3;58;266500;4;2;"2020-02-25 07:43:42"
3891;125;""0"";40;3;45;313200;2;1;"2020-02-25 07:49:09"
3892;125;""0"";41;3;9;134850;0;2;"2020-02-25 07:51:31"
3893;134;""1"";3;5;55;542970;0;2;"2020-02-25 07:55:19"
3894;125;""0"";42;5;42;551100;2;2;"2020-02-25 08:00:58"
3895;125;""0"";43;5;22;114340;2;2;"2020-02-25 08:03:02"
3896;134;""1"";4;3;47;596360;2;2;"2020-02-25 08:05:50"
3897;146;""1"";1;3;12;607800;4;2;"2020-02-25 08:10:46"
3898;140;""0"";42;3;52;557650;4;2;"2020-02-25 09:00:57"
3899;140;""0"";44;5;51;216320;0;2;"2020-02-25 09:32:49"
3900;140;""0"";45;5;16;236090;4;2;"2020-02-25 09:36:48"
3901;140;""0"";46;5;44;184720;3;1;"2020-02-25 09:39:56"
3902;140;""0"";47;5;38;92030;2;2;"2020-02-25 09:41:31"
3903;140;""0"";48;5;42;261800;4;2;"2020-02-25 09:47:21"
3904;141;""1"";1;3;60;473130;2;2;"2020-02-25 10:07:55"
3905;141;""1"";2;5;44;253340;1;2;"2020-02-25 10:12:26"
3906;141;""1"";3;5;15;267710;1;2;"2020-02-25 10:17:04"
3907;141;""1"";4;5;52;545570;4;2;"2020-02-25 10:26:26"
3908;141;""1"";5;3;27;141440;2;0;"2020-02-25 10:28:55"
3909;140;""0"";49;5;41;234780;2;2;"2020-02-25 10:45:33"
3910;137;""1"";29;3;17;190580;4;2;"2020-02-25 10:50:01"
3911;141;""1"";6;5;13;886850;1;2;"2020-02-25 10:50:07"
3912;137;""1"";30;3;27;12060;2;0;"2020-02-25 10:50:16"
3913;137;""1"";31;3;39;4890;2;0;"2020-02-25 10:50:23"
3914;141;""1"";7;3;55;112960;0;2;"2020-02-25 10:52:06"
3915;137;""1"";32;5;59;111300;1;2;"2020-02-25 10:52:19"
3916;141;""1"";8;5;12;707220;1;2;"2020-02-25 11:04:14"
3917;141;""1"";9;5;19;467790;2;1;"2020-02-25 11:12:16"
3918;141;""1"";10;5;22;772650;2;2;"2020-02-25 11:25:34"
3919;137;""1"";33;3;38;48720;2;2;"2020-02-25 11:53:08"
3920;137;""1"";34;3;30;51360;4;2;"2020-02-25 11:54:08"
3921;137;""1"";35;3;4;96230;4;2;"2020-02-25 11:55:47"
3922;137;""1"";36;5;49;60920;2;2;"2020-02-25 11:56:50"
3923;137;""1"";37;3;29;12190;0;2;"2020-02-25 11:57:06"
3924;137;""1"";38;3;6;54310;2;2;"2020-02-25 11:58:03"
3925;141;""1"";11;5;21;887780;1;2;"2020-02-25 11:58:34"
3926;137;""1"";39;3;1;71690;0;2;"2020-02-25 11:59:18"
3927;137;""1"";40;3;46;195250;2;1;"2020-02-25 12:02:39"
3928;137;""1"";41;5;40;88740;3;2;"2020-02-25 12:04:11"
3929;141;""1"";12;3;41;415910;0;2;"2020-02-25 12:05:44"
3930;137;""1"";42;5;36;126150;0;2;"2020-02-25 12:06:21"
3931;137;""1"";43;5;43;11170;0;2;"2020-02-25 12:07:30"
3932;137;""1"";44;5;48;10300;2;1;"2020-02-25 12:07:45"
3933;137;""1"";45;5;45;6250;2;0;"2020-02-25 12:07:53"
3934;141;""1"";13;3;51;188600;0;2;"2020-02-25 12:09:00"
3935;137;""1"";46;5;41;96570;1;2;"2020-02-25 12:09:32"
3936;137;""1"";47;3;21;27930;2;2;"2020-02-25 12:10:03"
3937;137;""1"";48;3;11;36550;0;2;"2020-02-25 12:10:42"
3938;137;""1"";49;3;19;14160;0;0;"2020-02-25 12:10:59"
3939;137;""1"";50;3;5;58930;2;2;"2020-02-25 12:12:00"
3940;137;""1"";51;5;35;27770;0;2;"2020-02-25 12:12:31"
3941;137;""1"";52;5;51;31590;0;2;"2020-02-25 12:13:04"
3942;137;""1"";53;5;58;13890;2;2;"2020-02-25 12:13:21"
3943;137;""1"";55;3;54;28950;2;2;"2020-02-25 12:14:05"
3944;137;""1"";56;5;15;17770;2;0;"2020-02-25 12:14:25"
3945;137;""1"";57;5;60;30930;2;0;"2020-02-25 12:15:00"
3946;137;""1"";58;3;44;10150;0;0;"2020-02-25 12:15:12"
3947;137;""1"";59;5;13;10180;2;0;"2020-02-25 12:15:24"
3948;137;""1"";60;5;20;41100;4;2;"2020-02-25 12:16:08"
3949;141;""1"";14;3;5;358330;0;2;"2020-02-25 12:24:19"
3950;144;""0"";28;3;38;655960;2;2;"2020-02-25 12:24:51"
3951;146;""1"";2;5;42;530470;4;2;"2020-02-25 12:31:03"
3952;141;""1"";15;3;57;265140;0;2;"2020-02-25 12:47:11"
3953;141;""1"";16;5;42;437770;4;2;"2020-02-25 12:54:47"
3954;144;""0"";29;3;15;1800000;2;2;"2020-02-25 12:55:10"
3955;144;""0"";30;3;43;376900;0;2;"2020-02-25 13:03:40"
3956;141;""1"";17;5;14;548580;0;2;"2020-02-25 13:04:14"
3957;144;""0"";31;3;18;38860;4;2;"2020-02-25 13:04:21"
3958;144;""0"";32;5;9;513400;0;2;"2020-02-25 13:12:58"
3959;141;""1"";18;5;25;542640;0;2;"2020-02-25 13:19:29"
3960;141;""1"";19;3;6;216530;2;2;"2020-02-25 13:23:14"
3961;141;""1"";20;3;59;438770;0;2;"2020-02-25 13:30:46"
3962;144;""0"";33;3;45;380040;0;0;"2020-02-25 13:43:55"
3963;143;""1"";21;3;41;109110;0;2;"2020-02-25 13:45:56"
3964;144;""0"";34;3;26;134570;2;2;"2020-02-25 13:46:12"
3965;144;""0"";35;5;28;124170;4;2;"2020-02-25 13:48:21"
3966;144;""0"";36;5;4;651220;4;2;"2020-02-25 13:59:27"
3967;141;""1"";21;5;4;443620;4;2;"2020-02-25 13:59:59"
3968;144;""0"";37;5;3;138190;0;2;"2020-02-25 14:01:50"
3969;144;""0"";38;3;13;69030;2;0;"2020-02-25 14:03:02"
3970;144;""0"";39;3;10;78760;2;2;"2020-02-25 14:04:23"
3971;144;""0"";40;3;19;52020;0;1;"2020-02-25 14:05:17"
3972;144;""0"";41;5;14;238280;4;2;"2020-02-25 14:09:27"
3973;141;""1"";22;5;29;135080;0;2;"2020-02-25 14:41:04"
3974;141;""1"";23;5;31;1137590;1;2;"2020-02-25 15:00:34"
3975;141;""1"";24;5;17;354550;0;2;"2020-02-25 15:07:35"
3976;140;""0"";50;5;12;343480;4;2;"2020-02-25 15:13:24"
3977;141;""1"";25;5;48;438130;2;2;"2020-02-25 15:15:19"
3978;144;""0"";42;5;41;414010;0;2;"2020-02-25 16:08:44"
3979;144;""0"";43;3;37;206650;0;2;"2020-02-25 16:12:14"
3980;144;""0"";44;3;39;221610;2;0;"2020-02-25 16:17:38"
3981;144;""0"";45;3;54;139340;4;2;"2020-02-25 16:19:59"
3982;144;""0"";46;5;20;32960;4;2;"2020-02-25 16:20:35"
3983;144;""0"";47;5;35;96380;0;2;"2020-02-25 16:22:15"
3984;144;""0"";48;3;8;171890;4;2;"2020-02-25 16:25:39"
3985;144;""0"";49;3;46;171010;4;2;"2020-02-25 16:28:32"
3986;144;""0"";50;3;17;114150;0;2;"2020-02-25 16:30:30"
3987;144;""0"";51;3;42;154010;4;2;"2020-02-25 16:33:06"
3988;144;""0"";52;3;31;108220;0;2;"2020-02-25 16:34:57"
3989;144;""0"";53;5;55;83840;0;2;"2020-02-25 16:36:24"
3990;134;""1"";5;5;2;167560;2;0;"2020-02-26 07:20:37"
3991;125;""0"";44;5;44;315420;0;1;"2020-02-26 07:50:30"
3992;125;""0"";45;3;12;264720;0;1;"2020-02-26 07:55:09"
3993;125;""0"";46;3;13;394190;0;0;"2020-02-26 08:02:09"
3994;125;""0"";47;3;30;426770;4;2;"2020-02-26 08:09:30"
3995;96;""0"";3;5;45;3570;2;1;"2020-02-26 08:27:31"
3996;141;""1"";26;5;45;389510;0;2;"2020-02-26 14:17:41"
3997;141;""1"";27;5;11;271430;0;1;"2020-02-26 14:22:24"
3998;141;""1"";28;5;46;198920;3;2;"2020-02-26 14:25:51"
3999;141;""1"";29;3;36;244130;4;2;"2020-02-26 14:30:06"
4000;141;""1"";30;3;26;431790;2;2;"2020-02-26 14:45:41"
4001;141;""1"";31;3;38;440070;2;2;"2020-02-26 14:53:18"
4002;141;""1"";32;3;37;1047180;0;2;"2020-02-26 15:11:15"
4003;141;""1"";33;3;10;195520;2;2;"2020-02-26 15:14:40"
4004;141;""1"";34;5;2;51090;2;0;"2020-02-26 15:15:35"
4005;141;""1"";35;5;9;308650;1;2;"2020-02-26 15:20:54"
4006;140;""0"";51;3;29;53190;0;2;"2020-02-26 15:21:38"
4007;141;""1"";36;3;49;310560;2;2;"2020-02-26 15:26:17"
4008;140;""0"";52;3;8;232400;4;2;"2020-02-26 15:36:48"
4009;140;""0"";53;5;22;24360;2;0;"2020-02-26 15:37:38"
4010;140;""0"";54;3;59;194640;0;2;"2020-02-26 15:40:56"
4011;140;""0"";55;5;39;22620;2;0;"2020-02-27 08:18:48"
4012;140;""0"";56;5;10;66710;2;2;"2020-02-27 08:19:58"
4013;140;""0"";57;5;36;453980;4;2;"2020-02-27 08:27:35"
4014;140;""0"";58;3;2;149200;2;2;"2020-02-27 08:50:21"
4015;140;""0"";59;3;3;122900;0;2;"2020-02-27 08:52:28"
4016;141;""1"";37;5;32;654010;1;2;"2020-02-27 08:52:49"
4017;140;""0"";60;3;53;124650;0;2;"2020-02-27 08:54:36"
4018;141;""1"";38;3;56;372560;2;2;"2020-02-27 08:59:18"
4019;141;""1"";39;5;43;69360;0;2;"2020-02-27 09:00:33"
4020;141;""1"";40;3;58;249810;4;2;"2020-02-27 09:04:57"
4021;141;""1"";41;3;23;383830;2;2;"2020-02-27 09:11:38"
4022;144;""0"";54;3;40;146810;4;2;"2020-02-27 09:50:06"
4023;144;""0"";55;5;58;112840;4;2;"2020-02-27 09:52:03"
4024;141;""1"";42;5;7;424590;1;2;"2020-02-27 10:03:14"
4025;141;""1"";43;3;50;482260;2;0;"2020-02-27 10:11:36"
4026;144;""0"";56;5;12;1391710;3;2;"2020-02-27 10:15:18"
4027;144;""0"";57;5;33;148520;3;2;"2020-02-27 10:17:49"
4028;141;""1"";44;5;39;469960;2;0;"2020-02-27 10:19:47"
4029;144;""0"";58;3;16;224140;4;2;"2020-02-27 10:21:35"
4030;144;""0"";59;5;52;220490;3;2;"2020-02-27 10:25:19"
4031;144;""0"";60;3;32;233260;4;2;"2020-02-27 10:29:15"
4032;141;""1"";45;5;24;503810;2;0;"2020-02-27 10:42:04"
4033;141;""1"";46;3;35;64810;0;2;"2020-02-27 10:47:06"
4034;141;""1"";47;3;53;323370;0;2;"2020-02-27 10:52:48"
4035;141;""1"";48;5;18;26360;4;2;"2020-02-27 10:53:18"
4036;141;""1"";49;3;3;332720;0;2;"2020-02-27 10:59:06"
4037;141;""1"";50;3;20;33840;4;2;"2020-02-27 10:59:43"
4038;141;""1"";51;3;47;773320;2;2;"2020-02-27 11:25:27"
4039;146;""1"";3;5;1;881960;3;2;"2020-02-28 07:44:17"
4040;146;""1"";4;3;3;274510;2;2;"2020-02-28 07:49:04"
4041;146;""1"";5;3;52;720510;4;2;"2020-02-28 08:05:50"
4042;146;""1"";6;3;7;100420;0;1;"2020-02-28 08:08:25"
4043;146;""1"";7;3;13;273880;0;1;"2020-02-28 09:48:04"
4044;146;""1"";8;5;24;783510;3;1;"2020-02-28 10:06:15"
4045;104;""1"";31;3;43;8430;0;2;"2020-02-29 12:29:53"
4046;104;""1"";32;3;19;18900;2;0;"2020-02-29 12:30:17"
4047;104;""1"";33;3;48;189310;2;1;"2020-02-29 12:38:07"
4048;104;""1"";34;5;3;110780;0;1;"2020-02-29 12:40:03"
4049;104;""1"";35;3;5;97060;2;1;"2020-02-29 12:44:26"
4050;104;""1"";36;5;27;34450;2;0;"2020-02-29 12:45:03"
4051;104;""1"";37;3;39;85590;2;1;"2020-02-29 12:46:32"
4052;104;""1"";38;3;35;31900;0;2;"2020-02-29 12:47:07"
4053;104;""1"";39;3;34;223690;0;2;"2020-02-29 12:50:54"
4054;104;""1"";40;5;57;141760;0;2;"2020-02-29 12:53:20"
4055;104;""1"";41;3;15;82020;2;1;"2020-02-29 12:54:45"
4056;104;""1"";42;5;10;263960;1;2;"2020-02-29 13:05:30"
4057;104;""1"";43;3;41;171550;2;1;"2020-02-29 13:08:25"
4058;104;""1"";44;3;42;321880;4;2;"2020-02-29 13:13:51"
4059;104;""1"";45;3;46;281960;2;1;"2020-02-29 13:18:37"
4060;104;""1"";46;5;49;154820;2;2;"2020-02-29 13:21:14"
4061;104;""1"";47;5;29;33960;0;2;"2020-02-29 13:21:51"
4062;104;""1"";48;3;54;276640;4;0;"2020-02-29 13:26:46"
4063;104;""1"";49;5;31;35200;0;2;"2020-02-29 13:27:24"
4064;104;""1"";51;3;50;62040;2;1;"2020-02-29 13:39:44"
4065;104;""1"";52;5;11;84970;0;1;"2020-02-29 13:41:13"
4066;104;""1"";53;5;16;93570;3;1;"2020-02-29 13:42:50"
4067;104;""1"";54;5;22;46670;2;1;"2020-02-29 13:43:41"
4068;104;""1"";55;3;4;131280;0;2;"2020-02-29 13:45:58"
4069;104;""1"";56;3;12;103050;2;2;"2020-02-29 13:47:44"
4070;104;""1"";57;3;44;87920;0;1;"2020-02-29 13:49:16"
4071;104;""1"";58;5;52;168630;3;1;"2020-02-29 13:52:08"
